tVal2,tVal3,tVal4,tVal5,tVal6,tVal7,ax,ay,az,gx,gy,gz,face
0,1,0,0,1,1,0.01,0.08,-1.11,-447.89,2478.91,-131.51,1
0,1,0,0,1,1,-0.08,0.07,-1.19,-235.73,4220.85,-342.43,1
0,1,0,0,1,1,-0.03,0.01,-1.17,-1901.99,952.85,315.14,1
0,1,0,0,1,1,-0.01,0.02,-1.08,261.79,800.25,306.45,1
0,1,0,0,1,1,-0.07,0,-1.17,2895.78,-756.82,-870.97,1
0,1,0,0,1,1,-0.03,0,-1.17,692.31,-1820.1,1017.37,1
0,1,0,0,1,1,-0.04,0,-1.18,-1084.37,-1801.49,669.98,1
0,1,0,0,1,1,0.03,-0.08,-1.14,-2470.22,-2081.89,-26.05,1
0,1,0,0,1,1,0.09,-0.11,-1.08,-452.85,516.13,491.32,1
0,1,0,0,1,1,0,-0.17,-1.09,2838.71,5951.62,2213.4,1
0,1,0,0,1,1,-0.11,-0.06,-1.13,4899.51,4460.3,98.01,1
0,1,0,0,1,1,-0.18,0.01,-1.17,5718.37,-554.59,-2263.03,1
0,1,0,0,1,1,-0.06,0.05,-1.18,-142.68,-4915.64,-947.89,1
0,1,0,0,1,1,0.02,0.03,-1.15,-4377.17,-5069.48,-286.6,1
0,1,0,0,1,1,0.09,-0.11,-1.12,-3491.32,-722.08,784.12,1
0,1,0,0,1,1,0.04,-0.18,-1.09,233.25,3786.6,1931.76,1
0,1,0,0,1,1,-0.08,-0.12,-1.16,4749.38,3070.72,806.45,1
0,1,0,0,1,1,-0.06,0.01,-1.18,4885.86,-96.77,-705.96,1
0,1,0,0,1,1,-0.02,0,-1.14,2565.76,-1955.34,-2070.72,1
0,1,0,0,1,1,0.02,0.01,-1.12,1296.53,-1333.75,-1689.83,1
0,1,0,0,1,1,0.02,-0.01,-1.15,-1598.02,-321.34,382.13,1
0,1,0,0,1,1,0.01,-0.04,-1.15,-2168.74,-874.69,724.57,1
0,1,0,0,1,1,0.03,-0.09,-1.12,-1390.82,483.87,1425.56,1
0,1,0,0,1,1,0.04,-0.12,-1.09,1779.16,3398.26,2452.85,1
0,1,0,0,1,1,-0.09,-0.08,-1.07,5500,4104.22,1523.57,1
0,1,1,0,1,1,-0.15,0.02,-1.16,9368.49,-1171.22,-2127.79,1
0,1,0,0,1,1,-0.02,0.18,-1.21,10000,-6047.15,-1000,1
0,1,1,0,1,1,0.09,0.24,-1.21,-2000,-1161.29,-2816.38,1
0,1,1,0,1,1,0.07,0.1,-1.16,-3636.48,500,1388.34,1
0,1,1,0,1,1,0.02,-0.01,-1.13,-3172.46,3203.48,4136.48,1
0,1,0,0,1,1,-0.08,-0.05,-1.12,1966.5,4021.09,6266.75,1
0,1,0,0,1,1,-0.1,0.09,-1.14,3616.63,1277.92,475.19,1
0,1,0,0,1,1,-0.09,0.07,-1.15,3016.13,-3023.57,-2763.03,1
0,1,0,0,1,1,0.01,0.13,-1.14,-111.66,-4791.57,-3790.32,1
0,1,1,0,1,1,0.1,0.09,-1.14,-5018.61,-2181.14,-3137.72,1
0,1,0,0,1,1,0.08,-0.06,-1.13,-5141.44,2249.38,13.65,1
0,1,0,0,1,1,0,-0.16,-1.17,-751.86,3590.57,1851.12,1
0,1,0,0,1,1,-0.05,-0.13,-1.13,2230.77,3178.66,2202.23,1
0,1,0,0,1,1,-0.1,-0.09,-1.15,4027.3,1951.61,1535.98,1
0,1,0,0,1,1,-0.09,0,-1.15,5353.6,-394.54,193.55,1
0,1,0,0,1,1,-0.07,0.06,-1.16,4799.01,-2658.81,-766.75,1
0,1,0,0,1,1,0,0.13,-1.18,1831.27,-3967.74,-1893.3,1
0,1,1,0,1,1,0.06,0.08,-1.16,-2006.2,-1062.04,-1409.43,1
0,1,0,0,1,1,0.06,0.04,-1.16,-2910.67,1053.35,160.05,1
0,1,0,0,1,1,0.03,-0.05,-1.14,-2067,2866.01,1320.1,1
0,1,0,0,1,1,-0.02,-0.11,-1.14,490.07,3733.25,2129.03,1
0,1,0,0,1,1,-0.11,-0.09,-1.11,3545.91,3007.45,828.78,1
0,1,0,0,1,1,-0.12,-0.01,-1.14,3877.17,202.23,-374.69,1
0,1,0,0,1,1,-0.09,0.05,-1.12,3851.12,-2112.9,-1300.25,1
0,1,0,0,1,1,-0.05,0.06,-1.14,2464.02,-3126.55,-1872.21,1
0,1,0,0,1,1,0.02,0.1,-1.17,40.94,-1471.46,-1244.42,1
0,1,0,0,1,1,0.04,0.04,-1.16,-1617.87,12.41,264.27,1
0,1,0,0,1,1,0.03,0,-1.15,-1612.9,1246.9,807.69,1
0,1,0,0,1,1,-0.02,-0.04,-1.15,-225.81,2135.24,997.52,1
0,1,0,0,1,1,-0.05,-0.1,-1.13,2114.14,2375.93,1941.69,1
0,1,0,0,1,1,-0.11,-0.03,-1.14,3451.61,1545.91,988.83,1
0,1,0,0,1,1,-0.11,0.02,-1.16,3598.02,-626.55,-1904.47,1
0,1,0,0,1,1,-0.08,0.06,-1.17,2772.95,-2476.43,-2050.87,1
0,1,0,0,1,1,0.01,0.16,-1.15,-125.31,-2821.34,-951.61,1
0,1,0,0,1,1,0,0.03,-1.16,-2841.19,-836.23,531.02,1
0,1,0,0,1,1,0.03,-0.02,-1.14,-2528.54,1067,868.49,1
0,1,0,0,1,1,0.01,-0.07,-1.15,-1204.72,3094.29,1710.92,1
0,1,0,0,1,1,-0.08,-0.11,-1.13,1232.01,2735.73,2121.59,1
0,1,0,0,1,1,-0.11,-0.07,-1.11,4088.09,955.34,952.85,1
0,1,0,0,1,1,-0.1,0.01,-1.14,5485.11,-1487.59,-354.84,1
0,1,0,0,1,1,-0.07,0.1,-1.16,3064.52,-2595.53,-1771.71,1
0,1,0,0,1,1,0.02,0.13,-1.13,-347.39,-3481.39,-1808.93,1
0,1,0,0,1,1,0.05,0.04,-1.14,-2255.58,-1224.57,-260.55,1
0,1,0,0,1,1,0.06,-0.03,-1.14,-2473.95,2027.3,1243.18,1
0,1,0,0,1,1,-0.03,-0.12,-1.14,-111.66,3947.89,2023.57,1
0,1,0,0,1,1,-0.07,-0.08,-1.14,2447.89,2596.78,1507.44,1
0,1,0,0,1,1,-0.12,-0.03,-1.17,4352.36,220.84,-367.25,1
0,1,0,0,1,1,-0.1,0.03,-1.15,4847.4,-2145.16,-1408.19,1
0,1,0,0,1,1,-0.03,0.1,-1.15,2857.32,-2672.46,-1452.85,1
0,1,0,0,1,1,-0.01,0.07,-1.16,-897.02,-1236.97,-338.71,1
0,1,0,0,1,1,-0.01,0.05,-1.14,-2516.13,-504.96,-521.09,1
0,1,0,0,1,1,0.03,-0.02,-1.12,-1538.46,250.62,363.52,1
0,1,0,0,1,1,-0.01,-0.04,-1.14,-320.1,3370.97,2052.11,1
0,1,0,0,1,1,-0.12,-0.1,-1.15,2831.27,3384.62,1981.39,1
0,1,0,0,1,1,-0.12,0,-1.14,4867.25,754.34,-952.85,1
0,1,0,0,1,1,-0.12,0.07,-1.15,3527.3,-1311.42,-1502.48,1
0,1,0,0,1,1,-0.07,0.11,-1.18,3627.79,-4584.37,-686.1,1
0,1,1,0,1,1,0.06,0.14,-1.14,-3105.46,-4940.45,-1415.63,1
0,1,1,0,1,1,0.1,0.05,-1.12,-2810.18,-817.62,249.38,1
0,1,1,0,1,1,0.05,-0.03,-1.14,-2318.86,2789.08,708.44,1
0,1,0,0,1,1,-0.02,-0.07,-1.14,-161.29,4472.71,1193.55,1
0,1,0,0,1,1,-0.09,-0.11,-1.13,2326.3,2547.15,1388.34,1
0,1,0,0,1,1,-0.12,-0.05,-1.14,4071.96,1052.11,-1.24,1
0,1,0,0,1,1,-0.1,0.04,-1.16,4405.71,-2218.36,-1302.73,1
0,1,0,0,1,1,-0.02,0.07,-1.13,1863.52,-4042.19,-2552.11,1
0,1,0,0,1,1,0.05,0.08,-1.15,-1771.71,-2043.43,-1405.71,1
0,1,0,0,1,1,0.07,0.02,-1.16,-3749.38,1308.93,983.87,1
0,1,0,0,1,1,0.02,-0.09,-1.13,-2295.29,2992.56,1807.69,1
0,1,0,0,1,1,-0.05,-0.13,-1.13,1433,3400.75,1488.83,1
0,1,0,0,1,1,-0.08,-0.1,-1.13,4718.36,2243.18,1090.57,1
0,1,0,0,1,1,-0.16,-0.03,-1.16,3719.6,-380.89,-802.73,1
0,1,0,0,1,1,-0.09,0.03,-1.15,4197.27,-4289.08,-1408.19,1
0,1,0,0,1,1,0.02,0.11,-1.12,2155.09,-4545.91,-2660.05,1
0,1,1,0,1,1,0.07,0.09,-1.15,-2243.18,-1918.12,-660.05,1
0,1,0,0,1,1,0.06,0,-1.15,-3363.53,782.88,964.02,1
0,1,0,0,1,1,0.07,-0.07,-1.15,-1585.61,3846.16,1945.41,1
0,1,0,0,1,1,-0.06,-0.09,-1.14,740.7,4697.27,1857.32,1
0,1,0,0,1,1,-0.09,-0.12,-1.13,4282.88,1514.89,-70.72,1
0,1,0,0,1,1,-0.12,0.01,-1.15,5931.77,-1378.41,-1026.06,1
0,1,0,0,1,1,-0.04,0.11,-1.15,4300.25,-4447.89,-1652.61,1
0,1,0,0,1,1,0.02,0.09,-1.15,-462.78,-3822.58,-2049.63,1
0,1,0,0,1,1,0.1,0.07,-1.14,-2471.47,-2544.67,-1021.09,1
0,1,0,0,1,1,0.12,0.02,-1.16,-3134,2369.73,1462.78,1
0,1,0,0,1,1,0.02,-0.09,-1.15,-1710.92,5816.38,2146.4,1
0,1,0,0,1,1,-0.09,-0.09,-1.13,2249.38,5279.16,2018.61,1
0,1,0,0,1,1,-0.12,-0.09,-1.11,4415.64,1911.91,-1080.65,1
0,1,0,0,1,1,-0.13,-0.04,-1.15,6156.33,-2111.66,-2204.72,1
0,1,0,0,1,1,-0.06,0.11,-1.13,3542.19,-3885.86,-3734.49,1
0,1,0,0,1,1,0.01,0.13,-1.15,1369.73,-4228.29,-1169.98,1
0,1,1,0,1,1,0.06,0.1,-1.14,-2359.8,-1136.48,586.85,1
0,1,1,0,1,1,0.05,0.03,-1.16,-4472.71,2088.09,1816.38,1
0,1,0,0,1,1,0.02,-0.09,-1.14,-2766.75,3748.14,2928.04,1
0,1,0,0,1,1,-0.07,-0.11,-1.13,1202.23,3955.34,2808.93,1
0,1,0,0,1,1,-0.12,-0.08,-1.12,4408.19,2847.4,529.78,1
,,,,,,,,,,,,1
0,1,0,0,1,1,-0.16,-0.01,-1.15,4827.55,194.79,-1096.77,1
0,1,0,0,1,1,-0.14,0.05,-1.15,2986.35,-3218.36,-2702.23,1
0,1,0,0,1,1,0,0.11,-1.15,1361.04,-3334.99,-1712.16,1
0,1,0,0,1,1,-0.02,0.06,-1.14,-1734.49,-960.3,392.06,1
0,1,0,0,1,1,0.02,0.01,-1.16,-2933,1239.45,1437.97,1
0,1,0,0,1,1,-0.03,-0.09,-1.13,-1460.3,2998.76,1821.34,1
0,1,0,0,1,1,-0.08,-0.06,-1.12,3182.38,2621.59,2423.08,1
0,1,0,0,1,1,-0.13,-0.05,-1.14,4021.09,2085.61,-899.5,1
0,1,0,0,1,1,-0.16,0.01,-1.13,4212.16,-663.77,-2352.36,1
0,1,0,0,1,1,-0.08,0.1,-1.12,3903.23,-3325.06,-2707.2,1
0,1,0,0,1,1,-0.02,0.09,-1.14,-22.33,-2428.04,-1671.22,1
0,1,0,0,1,1,0,0.1,-1.17,-2053.35,-897.02,1116.63,1
0,1,0,0,1,1,-0.01,0.01,-1.16,-2722.09,1449.13,2694.79,1
0,1,0,0,1,1,-0.04,-0.07,-1.13,-1921.84,3951.61,2496.28,1
0,1,0,0,1,1,-0.12,-0.1,-1.12,2326.3,3648.89,1026.06,1
0,1,0,0,1,1,-0.15,-0.03,-1.1,5205.96,874.69,-1446.65,1
0,1,0,0,1,1,-0.14,0.07,-1.12,4763.03,-2414.39,-2348.64,1
0,1,0,0,1,1,-0.1,0.1,-1.12,2200.99,-4057.07,-2504.96,1
0,1,0,0,1,1,-0.02,0.11,-1.14,-1111.66,-3580.65,-1338.71,1
0,1,0,0,1,1,0.05,0.06,-1.15,-2269.23,-1058.31,961.54,1
0,1,0,0,1,1,0.03,0.02,-1.16,-3076.92,2461.54,1822.58,1
0,1,0,0,1,1,-0.03,-0.09,-1.14,-991.32,3471.47,3223.33,1
0,1,0,0,1,1,-0.09,-0.09,-1.12,1272.95,3031.02,1165.01,1
0,1,0,0,1,1,-0.12,-0.07,-1.11,4879.66,1454.1,-1375.93,1
0,1,0,0,1,1,-0.13,0.02,-1.15,4344.92,-1023.57,-2962.78,1
0,1,0,0,1,1,-0.08,0.07,-1.13,2370.97,-2940.45,-3351.12,1
0,1,0,0,1,1,-0.04,0.11,-1.15,-729.53,-2359.8,-615.38,1
0,1,0,0,1,1,0,0.03,-1.16,-3263.03,-76.92,1383.38,1
0,1,0,0,1,1,-0.03,-0.06,-1.15,-1781.64,1753.1,3031.02,1
0,1,0,0,1,1,-0.06,-0.09,-1.15,1614.14,2611.66,2781.64,1
0,1,0,0,1,1,-0.11,-0.07,-1.13,3869.73,3261.79,1219.6,1
0,1,0,0,1,1,-0.18,-0.02,-1.14,5378.41,200.99,-91.81,1
0,1,0,0,1,1,-0.15,0.08,-1.15,3334.99,-3389.58,-3729.53,1
0,1,0,0,1,1,-0.03,0.15,-1.11,655.09,-3514.89,-2674.94,1
0,1,0,0,1,1,0.02,0.11,-1.16,-3822.58,466.5,405.71,1
0,1,0,0,1,1,-0.07,-0.09,-1.17,-1946.65,3714.64,3461.54,1
0,1,0,0,1,1,-0.12,-0.08,-1.12,3655.09,2187.35,2650.13,1
0,1,0,0,1,1,-0.17,0.02,-1.15,5214.64,408.19,430.52,1
0,1,0,0,1,1,-0.15,0.08,-1.12,4524.82,-1715.88,-1318.86,1
0,1,0,0,1,1,-0.08,0.15,-1.13,1905.71,-3679.9,-2210.92,1
0,1,1,0,1,1,0.02,0.15,-1.12,-615.38,-3129.03,-1677.42,1
0,1,1,0,1,1,0.08,0.07,-1.14,-3263.03,531.02,944.17,1
0,1,0,0,1,1,0,0,-1.16,-3677.42,3795.29,2114.14,1
0,1,0,0,1,1,-0.09,-0.08,-1.17,683.62,2717.12,2416.87,1
0,1,0,0,1,1,-0.12,-0.05,-1.12,4605.46,1310.17,775.43,1
0,1,0,0,1,1,-0.14,0.03,-1.12,6455.34,-1188.59,-1177.42,1
0,1,0,0,1,1,-0.09,0.13,-1.15,2003.72,-1769.23,-3198.51,1
0,1,0,0,1,1,-0.04,0.11,-1.13,-1651.37,-2834.99,-1363.52,1
0,1,0,0,1,1,0.04,0.05,-1.13,-2468.98,-1457.82,1052.11,1
0,1,0,0,1,1,0.05,-0.03,-1.14,-2429.28,2604.22,2189.83,1
0,1,0,0,1,1,-0.05,-0.07,-1.16,153.85,3401.99,2888.34,1
0,1,0,0,1,1,-0.11,-0.07,-1.13,3079.41,2037.22,993.8,1
0,1,0,0,1,1,-0.18,-0.02,-1.13,5411.91,-660.05,-1699.75,1
0,1,0,0,1,1,-0.08,0.12,-1.15,2286.6,-2543.43,-3454.1,1
0,1,0,0,1,1,-0.02,0.09,-1.15,-2327.54,-1831.27,14.89,1
0,1,0,0,1,1,0.04,0.01,-1.15,-3519.85,966.5,2236.97,1
0,1,0,0,1,1,-0.04,-0.09,-1.15,-1642.68,3222.09,2140.2,1
0,1,0,0,1,1,-0.08,-0.1,-1.13,2624.07,2305.21,1130.27,1
0,1,0,0,1,1,-0.15,-0.04,-1.09,5320.1,328.78,-1265.51,1
0,1,0,0,1,1,-0.15,0.03,-1.14,3522.33,-1441.69,-3641.44,1
0,1,0,0,1,1,-0.06,0.11,-1.13,2172.46,-3109.18,-2179.9,1
0,1,0,0,1,1,-0.01,0.08,-1.13,-2331.27,-1794.05,985.11,1
0,1,0,0,1,1,0.02,-0.01,-1.14,-1379.65,222.08,2898.26,1
0,1,0,0,1,1,-0.03,0.04,-1.13,745.66,3908.19,1946.65,1
0,1,0,0,1,1,-0.16,-0.05,-1.11,3631.52,1985.11,-1014.89,1
0,1,0,0,1,1,-0.13,0.08,-1.13,4970.23,-2045.91,-2852.36,1
0,1,0,0,1,1,-0.05,0.07,-1.1,1429.28,-2564.52,-2560.8,1
0,1,0,0,1,1,0.02,0.1,-1.16,-2642.68,-1527.3,1784.12,1
0,1,0,0,1,1,0.04,-0.01,-1.14,-3055.83,1383.38,3129.03,1
0,1,0,0,1,1,-0.08,-0.11,-1.12,-42.18,5079.41,1359.8,1
0,1,0,0,1,1,-0.13,-0.02,-1.13,5044.67,2104.22,-2472.71,1
0,1,0,0,1,1,-0.17,0.04,-1.12,5580.65,-2691.07,-4085.61,1
0,1,0,0,1,1,-0.06,0.11,-1.15,1794.05,-5143.92,-4294.05,1
0,1,0,0,1,1,0.03,0.12,-1.15,-1297.77,-2964.02,820.1,1
0,1,0,0,1,1,0.06,0.05,-1.14,-3730.77,2289.08,4648.89,1
0,1,0,0,1,1,-0.04,-0.07,-1.19,-521.09,4450.37,3166.25,1
0,1,0,0,1,1,-0.12,-0.05,-1.14,3894.54,2822.58,650.12,1
0,1,0,0,1,1,-0.12,0.04,-1.13,4563.28,152.61,-2270.47,1
0,1,0,0,1,1,-0.1,0.07,-1.16,2811.42,-1738.21,-3506.21,1
0,1,0,0,1,1,-0.05,0.1,-1.14,1552.11,-4125.31,-1379.65,1
0,1,0,0,1,1,0.02,0.09,-1.16,-1820.1,-2588.09,-419.36,1
0,1,0,0,1,1,0.08,0.1,-1.16,-5125.31,1196.03,1292.8,1
0,1,0,0,1,1,-0.03,-0.11,-1.11,-4267.99,4590.57,2564.52,1
0,1,0,0,1,1,-0.1,-0.14,-1.13,2202.23,3813.9,1750.62,1
0,1,0,0,1,1,-0.18,-0.06,-1.13,6897.03,70.72,-848.64,1
0,1,0,0,1,1,-0.12,0.06,-1.16,6874.69,-3965.26,-3327.55,1
0,1,0,0,1,1,-0.02,0.16,-1.16,1909.43,-4786.6,-4557.07,1
0,1,0,0,1,1,0.06,0.09,-1.1,-2280.4,-3187.35,-2678.66,1
0,1,0,0,1,1,0.09,0.03,-1.16,-4080.65,2629.03,1075.68,1
0,1,0,0,1,1,0,-0.06,-1.16,-2480.15,5669.98,2784.12,1
0,1,0,0,1,1,-0.11,-0.12,-1.15,1692.31,4404.47,3379.65,1
0,1,0,0,1,1,-0.18,-0.09,-1.12,4339.95,2011.17,366.01,1
0,1,0,0,1,1,-0.19,0.03,-1.12,6387.1,-3168.74,-1575.68,1
0,1,0,0,1,1,-0.04,0.12,-1.12,2913.15,-4420.6,-3062.04,1
0,1,0,0,1,1,0,0.1,-1.13,-2344.91,-1805.21,-727.05,1
0,1,0,0,1,1,0.04,0.03,-1.15,-2988.84,760.55,1741.94,1
0,1,0,0,1,1,0,-0.03,-1.13,-2088.09,3297.77,1575.68,1
0,1,0,0,1,1,-0.09,-0.11,-1.15,-250.62,3679.9,1331.27,1
0,1,0,0,1,1,-0.12,-0.1,-1.12,4035.98,2093.05,794.05,1
0,1,0,0,1,1,-0.21,-0.05,-1.13,7029.78,-1049.63,-1567,1
0,1,0,0,1,1,-0.1,0.13,-1.15,4831.27,-3436.73,-3147.64,1
0,1,0,0,1,1,-0.04,0.14,-1.15,24.81,-3531.02,-2325.06,1
0,1,0,0,1,1,0.06,0.07,-1.13,-2393.3,-1869.73,-225.81,1
0,1,0,0,1,1,0.05,0.06,-1.15,-2585.61,1766.75,2120.35,1
0,1,0,0,1,1,-0.02,-0.04,-1.14,-2320.1,4224.57,2366.01,1
0,1,0,0,1,1,-0.12,-0.12,-1.11,1522.33,2434.24,2691.07,1
0,1,0,0,1,1,-0.16,-0.07,-1.17,5761.79,971.46,-729.53,1
0,1,0,0,1,1,-0.13,0.09,-1.14,5795.29,-1796.53,-2620.35,1
0,1,0,0,1,1,-0.06,0.1,-1.13,-58.31,-2951.61,-2955.34,1
0,1,0,0,1,1,-0.01,0.07,-1.14,-1815.14,-3178.66,-433,1
0,1,0,0,1,1,0.03,0.02,-1.14,-2203.47,-348.64,2379.65,1
0,1,0,0,1,1,0.04,-0.05,-1.14,-1632.76,3409.43,2801.49,1
0,1,0,0,1,1,-0.1,-0.09,-1.12,763.03,3880.9,2210.92,1
0,1,0,0,1,1,-0.16,-0.09,-1.12,5152.61,1200.99,302.73,1
0,1,0,0,1,1,-0.13,0.03,-1.11,6734.49,-2167.49,-2676.18,1
0,1,1,0,1,1,-0.04,0.12,-1.15,2612.9,-3552.11,-4362.29,1
0,1,1,0,1,1,0.02,0.12,-1.14,-975.19,-2140.2,-2389.58,1
0,1,0,0,1,1,0.05,0.08,-1.17,-4052.11,1836.23,1595.53,1
0,1,0,0,1,1,-0.02,-0.06,-1.14,-4498.76,4744.42,1392.06,1
,,,,,,,,,,,,1
0,1,0,0,1,1,-0.16,-0.13,-1.12,1189.83,3299.01,2403.23,1
0,1,0,0,1,1,-0.17,-0.07,-1.12,5987.6,522.33,987.59,1
0,1,0,0,1,1,-0.12,0.09,-1.14,6161.29,-1064.52,-1767.99,1
0,1,0,0,1,1,-0.09,0.14,-1.14,2202.23,-3001.24,-2473.95,1
0,1,0,0,1,1,-0.01,0.12,-1.12,-1996.28,-2624.07,-1930.52,1
0,1,0,0,1,1,0.03,0.04,-1.17,-2796.53,368.49,1124.07,1
0,1,0,0,1,1,-0.03,-0.02,-1.16,-4468.98,3377.17,1244.42,1
0,1,0,0,1,1,-0.1,-0.15,-1.13,-966.5,2707.2,1437.97,1
0,1,0,0,1,1,-0.13,-0.13,-1.11,4299.01,1444.17,1368.49,1
0,1,0,0,1,1,-0.12,-0.01,-1.09,7070.72,-714.64,854.84,1
0,1,0,0,1,1,-0.12,0.06,-1.11,5003.72,-3083.13,-1514.89,1
0,1,0,0,1,1,-0.03,0.1,-1.14,584.37,-4117.87,-3444.17,1
0,1,0,0,1,1,0.03,0.08,-1.14,-2142.68,-1348.64,165.01,1
0,1,0,0,1,1,0.04,-0.02,-1.15,-3732.01,4503.72,1253.1,1
0,1,0,0,1,1,-0.11,-0.11,-1.12,-1754.34,4952.86,1887.1,1
0,1,0,0,1,1,-0.19,-0.1,-1.12,4919.36,1740.7,1028.54,1
0,1,0,0,1,1,-0.18,0.05,-1.11,7107.94,-2220.84,-1555.83,1
0,1,0,0,1,1,-0.07,0.13,-1.15,2274.19,-3830.03,-3486.35,1
0,1,0,0,1,1,0,0.09,-1.14,-2331.27,-3830.03,-2591.81,1
0,1,0,0,1,1,0.04,0.03,-1.14,-2641.44,488.83,599.26,1
0,1,0,0,1,1,-0.01,-0.03,-1.15,-1993.8,4689.83,2127.79,1
0,1,0,0,1,1,-0.14,-0.09,-1.14,1966.5,3535.98,2095.53,1
0,1,0,0,1,1,-0.19,-0.04,-1.15,5442.93,-688.59,-689.83,1
0,1,0,0,1,1,-0.08,0.11,-1.08,4950.37,-3646.4,-2244.42,1
0,1,0,0,1,1,-0.04,0.09,-1.14,-197.27,-3496.28,-3034.74,1
0,1,0,0,1,1,0.06,0.07,-1.14,-1646.4,-1287.84,1161.29,1
0,1,0,0,1,1,0.04,-0.03,-1.16,-3228.29,3229.53,1666.25,1
0,1,0,0,1,1,-0.04,-0.08,-1.15,-2307.69,4686.11,2026.06,1
0,1,0,0,1,1,-0.15,-0.16,-1.11,3552.11,1978.91,2364.77,1
0,1,0,0,1,1,-0.13,-0.06,-1.1,6663.78,-356.08,-491.32,1
0,1,0,0,1,1,-0.09,0.12,-1.16,4867.25,-2578.16,-3003.72,1
0,1,0,0,1,1,-0.05,0.09,-1.14,-337.47,-3414.39,-3084.37,1
0,1,0,0,1,1,0.04,0.04,-1.15,-3524.82,-1214.64,-1899.5,1
0,1,0,0,1,1,0.03,-0.02,-1.17,-1894.54,1648.88,2115.39,1
0,1,0,0,1,1,-0.03,-0.07,-1.17,-1740.7,3983.87,2834.99,1
0,1,0,0,1,1,-0.14,-0.14,-1.14,1357.32,1983.87,1683.62,1
0,1,0,0,1,1,-0.15,-0.07,-1.11,7111.67,-611.66,808.93,1
0,1,0,0,1,1,-0.12,0.09,-1.19,5117.87,-1545.91,-719.6,1
0,1,0,0,1,1,-0.07,0.1,-1.13,1856.08,-3393.3,-879.65,1
0,1,0,0,1,1,0.01,0.08,-1.14,-3209.68,-2944.17,-1102.98,1
0,1,0,0,1,1,0.05,-0.01,-1.17,-3341.19,-308.93,-634,1
0,1,0,0,1,1,0.02,-0.08,-1.14,-697.27,4127.79,1521.09,1
0,1,0,0,1,1,-0.08,-0.16,-1.11,2507.45,4929.28,2233.25,1
0,1,0,0,1,1,-0.17,-0.11,-1.14,6699.76,2075.68,196.03,1
0,1,0,0,1,1,-0.13,0.11,-1.13,7272.96,-2820.1,-1955.34,1
0,1,0,0,1,1,-0.02,0.18,-1.14,142.68,-3967.74,-3944.17,1
0,1,0,0,1,1,0.01,0.12,-1.13,-2609.18,-2913.15,227.05,1
0,1,0,0,1,1,0.06,-0.01,-1.14,-3846.16,1585.61,1388.34,1
0,1,0,0,1,1,-0.04,-0.06,-1.19,-1807.69,3911.91,900.74,1
0,1,0,0,1,1,-0.13,-0.09,-1.11,2683.62,2227.05,2250.62,1
0,1,0,0,1,1,-0.19,-0.02,-1.13,6035.98,-220.84,-161.29,1
0,1,0,0,1,1,-0.1,0.07,-1.18,5192.31,-2817.62,-2155.09,1
0,1,0,0,1,1,-0.02,0.17,-1.15,1277.92,-3203.48,-1890.82,1
0,1,1,0,1,1,0.07,0.11,-1.13,-4591.81,506.2,1571.96,1
0,1,0,0,1,1,0.02,-0.06,-1.15,-3126.55,3452.86,2399.5,1
0,1,0,0,1,1,-0.08,-0.11,-1.1,2842.43,3879.65,1058.31,1
0,1,0,0,1,1,-0.19,-0.05,-1.13,5816.38,1725.81,-468.98,1
0,1,0,0,1,1,-0.14,0.08,-1.11,4697.27,-1915.63,-1982.63,1
0,1,0,0,1,1,-0.06,0.17,-1.11,1904.47,-3610.42,-1753.1,1
0,1,1,0,1,1,-0.01,0.14,-1.15,-658.81,-3286.6,182.38,1
0,1,0,0,1,1,0.05,0.08,-1.16,-3413.15,-717.12,341.19,1
0,1,0,0,1,1,-0.01,-0.01,-1.16,-3681.14,3320.1,552.11,1
0,1,0,0,1,1,-0.07,-0.08,-1.12,-2156.33,3964.02,1089.33,1
0,1,0,0,1,1,-0.19,-0.12,-1.1,1456.58,2877.17,1702.23,1
0,1,0,0,1,1,-0.2,-0.11,-1.06,7235.74,464.02,3.72,1
0,1,0,0,1,1,-0.11,0.1,-1.17,6459.06,-661.29,-2719.6,1
0,1,0,0,1,1,-0.07,0.16,-1.12,2781.64,-2934.24,-2074.44,1
0,1,0,0,1,1,-0.04,0.13,-1.16,-1081.89,-3674.94,119.11,1
0,1,0,0,1,1,0,0.05,-1.13,-3003.72,-1467.74,966.5,1
0,1,0,0,1,1,0.01,-0.05,-1.11,-2410.67,3827.55,1822.58,1
0,1,0,0,1,1,-0.07,-0.12,-1.09,2390.82,5037.22,1461.54,1
0,1,0,0,1,1,-0.15,-0.04,-1.13,5567,1719.6,-528.54,1
0,1,0,0,1,1,-0.16,0.13,-1.12,6926.8,-2810.18,-2374.69,1
0,1,0,0,1,1,-0.05,0.22,-1.13,2661.29,-4117.87,-2650.13,1
0,1,1,0,1,1,0.01,0.17,-1.14,-2267.99,-3204.72,-179.9,1
0,1,1,0,1,1,0.08,0.1,-1.14,-3471.47,-2322.58,987.59,1
0,1,1,0,1,1,0.08,0.03,-1.12,-5369.73,3027.3,2194.79,1
0,1,0,0,1,1,-0.06,-0.1,-1.12,-2436.73,5573.2,2452.85,1
0,1,0,0,1,1,-0.16,-0.07,-1.08,3714.64,4067,229.53,1
0,1,0,0,1,1,-0.22,0.05,-1.13,8027.3,-1038.46,-2702.23,1
0,1,0,0,1,1,-0.12,0.15,-1.15,2870.97,-4093.05,-3421.84,1
0,1,1,0,1,1,-0.03,0.13,-1.14,-1302.73,-4461.54,689.83,1
0,1,0,0,1,1,0.05,0,-1.13,-1997.52,-921.84,730.77,1
0,1,0,0,1,1,0,-0.02,-1.17,-1532.26,2516.13,1026.06,1
0,1,0,0,1,1,-0.05,-0.04,-1.16,-936.73,2978.91,1936.73,1
0,1,0,0,1,1,-0.11,-0.07,-1.14,2743.18,2223.33,983.87,1
0,1,0,0,1,1,-0.12,0,-1.13,5416.88,456.58,-848.64,1
0,1,0,0,1,1,-0.12,0.07,-1.16,3624.07,-1069.48,-2630.27,1
0,1,0,0,1,1,-0.09,0.11,-1.14,1246.9,-1970.22,-2142.68,1
0,1,0,0,1,1,-0.02,0.13,-1.15,-94.29,-2328.79,183.62,1
0,1,0,0,1,1,0,0.07,-1.16,-1334.99,-966.5,604.22,1
0,1,0,0,1,1,0.01,0.02,-1.13,-3114.15,2366.01,1104.22,1
0,1,0,0,1,1,-0.06,-0.07,-1.13,-2001.24,3996.28,1898.26,1
0,1,0,0,1,1,-0.12,-0.08,-1.13,2315.14,2547.15,497.52,1
0,1,0,0,1,1,-0.21,-0.04,-1.12,5616.63,222.08,-1099.26,1
0,1,0,0,1,1,-0.12,0.13,-1.16,5645.16,-1837.47,-2353.6,1
0,1,0,0,1,1,-0.1,0.14,-1.12,2426.8,-3292.81,-2275.44,1
0,1,0,0,1,1,0,0.13,-1.14,-2031.02,-2450.37,277.92,1
0,1,0,0,1,1,0.03,0.03,-1.15,-2263.03,-904.47,833.75,1
0,1,0,0,1,1,0,0.03,-1.18,-1873.45,3049.63,1571.96,1
0,1,0,0,1,1,-0.08,-0.07,-1.17,-775.43,4280.4,1770.47,1
0,1,0,0,1,1,-0.16,-0.05,-1.14,2836.23,2493.8,339.95,1
0,1,0,0,1,1,-0.2,0,-1.13,6446.65,-1150.12,-1650.12,1
0,1,0,0,1,1,-0.08,0.18,-1.13,5501.24,-2518.61,-3662.53,1
0,1,0,0,1,1,-0.06,0.15,-1.14,480.15,-3901.99,-1607.94,1
0,1,1,0,1,1,0.03,0.12,-1.15,-2017.37,-2660.05,708.44,1
0,1,1,0,1,1,0.08,0.06,-1.13,-3741.94,1034.74,913.15,1
0,1,0,0,1,1,-0.02,-0.01,-1.16,-3300.25,4826.31,2080.65,1
0,1,0,0,1,1,-0.08,-0.12,-1.14,-171.22,4688.59,2495.04,1
0,1,0,0,1,1,-0.21,-0.05,-1.13,4971.47,2313.9,-578.16,1
0,1,0,0,1,1,-0.22,0.05,-1.15,6013.65,-1497.52,-2258.07,1
0,1,0,0,1,1,-0.13,0.11,-1.11,2542.18,-4962.78,-3225.81,1
0,1,1,0,1,1,-0.03,0.21,-1.14,-54.59,-4765.51,122.83,1
0,1,0,0,1,1,0.05,0.07,-1.13,-5387.1,1874.69,1534.74,1
0,1,0,0,1,1,-0.08,-0.08,-1.15,-1823.82,2970.22,3421.84,1
0,1,0,0,1,1,-0.07,-0.05,-1.13,2668.74,2421.84,870.97,1
0,1,0,0,1,1,-0.14,-0.01,-1.12,4851.12,2717.12,362.28,1
0,1,0,0,1,1,-0.19,0.02,-1.11,4067,1630.27,-766.75,1
0,1,0,0,1,1,-0.16,0.07,-1.12,4558.31,-2142.68,-2544.67,1
,,,,,,,,,,,,1
0,1,0,0,1,1,-0.09,0.18,-1.11,3766.75,-4084.37,-3186.11,1
0,1,1,0,1,1,-0.01,0.21,-1.13,-177.42,-3553.35,-1266.75,1
0,1,1,0,1,1,0.03,0.15,-1.14,-3013.65,-797.77,1669.98,1
0,1,1,0,1,1,0.02,0.04,-1.13,-3100.5,2655.09,1996.28,1
0,1,1,0,1,1,-0.08,0.01,-1.14,-565.76,4636.48,1992.56,1
0,1,0,0,1,1,-0.11,-0.04,-1.13,2529.78,3653.85,720.84,1
0,1,0,0,1,1,-0.23,0.04,-1.12,5311.42,750.62,-2501.24,1
0,1,0,0,1,1,-0.15,0.17,-1.1,5217.12,-3903.23,-2807.69,1
0,1,0,0,1,1,-0.11,0.19,-1.14,303.97,-3928.04,-2634,1
0,1,1,0,1,1,-0.03,0.15,-1.15,-315.14,-2873.45,1213.4,1
0,1,1,0,1,1,0.03,0.15,-1.13,-3946.65,378.41,1203.47,1
0,1,0,0,1,1,-0.04,-0.02,-1.14,-4923.08,4513.65,2667.5,1
0,1,0,0,1,1,-0.06,-0.07,-1.1,-558.31,3764.27,1292.8,1
0,1,0,0,1,1,-0.14,-0.06,-1.09,3689.83,3341.19,241.94,1
0,1,0,0,1,1,-0.19,0,-1.11,4275.44,1342.43,-1522.33,1
0,1,0,0,1,1,-0.16,0.06,-1.16,2483.87,-3038.46,-4049.63,1
0,1,0,0,1,1,-0.11,0.11,-1.11,651.37,-5291.57,-1646.4,1
0,1,0,0,1,1,-0.02,0.13,-1.16,-2156.33,-2666.25,1553.35,1
0,1,0,0,1,1,-0.03,-0.02,-1.15,-2852.36,1952.85,3465.26,1
0,1,0,0,1,1,-0.06,-0.03,-1.13,923.08,3531.02,3327.55,1
0,1,0,0,1,1,-0.13,-0.03,-1.13,3385.86,2780.4,1554.59,1
0,1,0,0,1,1,-0.16,-0.01,-1.11,6245.66,184.86,-294.04,1
0,1,0,0,1,1,-0.13,0.09,-1.1,4227.05,-3538.46,-3796.53,1
0,1,1,0,1,1,-0.05,0.17,-1.12,2816.38,-4500,-3095.54,1
0,1,1,0,1,1,0.02,0.15,-1.13,-1153.85,-2977.67,-315.14,1
0,1,1,0,1,1,0.06,0.08,-1.16,-3353.6,754.34,880.89,1
0,1,0,0,1,1,-0.05,0.01,-1.19,-3459.06,3880.9,1178.66,1
0,1,0,0,1,1,-0.11,-0.07,-1.05,129.03,3519.85,1970.22,1
0,1,0,0,1,1,-0.14,-0.05,-1.09,5883.38,2146.4,1409.43,1
0,1,0,0,1,1,-0.13,0.11,-1.12,7709.68,-1833.75,-289.08,1
0,1,0,0,1,1,-0.07,0.17,-1.12,3111.66,-3344.91,-2836.23,1
0,1,1,0,1,1,-0.01,0.19,-1.11,-1839.95,-2251.86,-679.9,1
0,1,1,0,1,1,0,0.08,-1.16,-3265.51,1071.96,1626.55,1
0,1,0,0,1,1,-0.04,0.01,-1.16,-2707.2,3286.6,2163.77,1
0,1,0,0,1,1,-0.08,-0.03,-1.13,-35.98,2914.39,1936.73,1
0,1,0,0,1,1,-0.21,-0.01,-1.13,4425.56,1316.38,-290.32,1
0,1,0,0,1,1,-0.14,0.11,-1.14,4854.84,-2022.33,-1889.58,1
0,1,0,0,1,1,-0.1,0.13,-1.14,1919.36,-3331.27,-1725.81,1
0,1,0,0,1,1,-0.06,0.14,-1.13,-476.43,-1348.64,-1571.96,1
0,1,0,0,1,1,0.01,0.11,-1.15,-2944.17,-168.73,662.53,1
0,1,0,0,1,1,-0.05,-0.09,-1.12,-3249.38,2552.11,1554.59,1
0,1,0,0,1,1,-0.09,-0.06,-1.12,4320.1,2710.92,2200.99,1
0,1,0,0,1,1,-0.16,0.01,-1.15,6074.44,911.91,-450.37,1
0,1,0,0,1,1,-0.13,0.13,-1.15,4259.31,-2223.33,-2677.42,1
0,1,0,0,1,1,-0.08,0.16,-1.13,1059.55,-4151.37,-2786.6,1
0,1,1,0,1,1,0.01,0.15,-1.14,-1261.79,-2562.04,-418.11,1
0,1,1,0,1,1,0.06,0.13,-1.14,-2817.62,205.96,1392.06,1
0,1,1,0,1,1,0.02,-0.03,-1.14,-4936.73,4625.31,2570.72,1
0,1,0,0,1,1,-0.08,-0.1,-1.14,-191.07,5004.97,3198.51,1
0,1,0,0,1,1,-0.16,-0.05,-1.12,3325.06,4141.44,-1533.5,1
0,1,0,0,1,1,-0.22,0.01,-1.13,7606.7,-1817.62,-1777.92,1
0,1,0,0,1,1,-0.1,0.16,-1.12,5398.27,-3843.67,-3931.76,1
0,1,1,0,1,1,-0.05,0.17,-1.11,1423.08,-4870.97,-2893.3,1
0,1,1,0,1,1,0.04,0.18,-1.14,-2065.76,-2647.64,171.22,1
0,1,1,0,1,1,0.09,0.08,-1.13,-3921.84,1884.62,1655.09,1
0,1,1,0,1,1,-0.04,-0.01,-1.14,-2410.67,4461.54,2080.65,1
0,1,0,0,1,1,-0.11,-0.06,-1.15,263.03,4042.19,2088.09,1
0,1,0,0,1,1,-0.15,-0.03,-1.09,6352.36,2057.07,532.26,1
0,1,0,0,1,1,-0.13,0.16,-1.11,8199.76,-1263.03,-2327.54,1
0,1,0,0,1,1,-0.11,0.19,-1.13,672.46,-2813.9,-3359.8,1
0,1,1,0,1,1,-0.06,0.14,-1.13,-2856.08,-3334.99,334.99,1
0,1,1,0,1,1,0.02,0.06,-1.14,-2601.74,-2207.2,142.68,1
0,1,0,0,1,1,0.01,0.08,-1.17,-2677.42,893.3,1210.92,1
0,1,0,0,1,1,-0.02,-0.06,-1.14,-3318.86,3591.81,2414.39,1
0,1,0,0,1,1,-0.11,-0.15,-1.12,3083.13,2343.67,2380.89,1
0,1,0,0,1,1,-0.14,-0.01,-1.11,6578.17,-579.4,-739.45,1
0,1,0,0,1,1,-0.09,0.13,-1.14,3574.44,-1528.54,-2557.07,1
0,1,0,0,1,1,0.02,0.1,-1.1,-822.58,-1538.46,-609.18,1
0,1,0,0,1,1,0.04,0.02,-1.14,-4250.62,2694.79,4016.13,1
0,1,0,0,1,1,-0.14,-0.19,-1.14,-2289.08,2367.25,2444.17,1
0,1,0,0,1,1,-0.17,0.01,-1.16,8263.03,-40.94,-1230.77,1
0,1,0,0,1,1,-0.14,0.13,-1.15,5214.64,-2682.38,-2996.28,1
0,1,1,0,1,1,-0.03,0.19,-1.18,605.46,-3038.46,-2080.65,1
0,1,1,0,1,1,0.08,0.1,-1.17,-2894.54,-338.71,1601.74,1
0,1,0,0,1,1,0,-0.06,-1.16,-5267.99,4282.88,1997.52,1
0,1,0,0,1,1,-0.19,-0.2,-1.13,-913.15,3404.47,2023.57,1
0,1,0,0,1,1,-0.19,-0.12,-1.13,8201,387.1,2719.6,1
0,1,0,0,1,1,-0.11,0.15,-1.14,7610.43,-1202.23,-1054.59,1
0,1,0,0,1,1,-0.07,0.16,-1.19,1725.81,-3027.3,-1568.24,1
0,1,0,0,1,1,-0.07,0.14,-1.17,-3187.35,-724.57,691.07,1
0,1,0,0,1,1,0,0.05,-1.18,-5657.57,1326.3,4003.72,1
0,1,0,0,1,1,-0.15,-0.2,-1.12,-858.56,2037.22,2770.47,1
0,1,0,0,1,1,-0.13,0.02,-1.17,5205.96,3544.67,-194.79,1
0,1,0,0,1,1,-0.21,0.07,-1.15,5934.25,-718.36,-261.79,1
0,1,0,0,1,1,-0.1,0.13,-1.09,5771.72,-3405.71,-1704.72,1
0,1,0,0,1,1,0,0.18,-1.12,192.31,-3357.32,-3634,1
0,1,1,0,1,1,0.02,0.11,-1.13,-2459.06,-2447.89,-2026.06,1
0,1,0,0,1,1,0.05,0.07,-1.17,-4589.33,1084.37,1446.65,1
0,1,0,0,1,1,-0.04,-0.08,-1.11,-4702.24,4751.86,3366.01,1
0,1,0,0,1,1,-0.1,-0.2,-1.07,2312.66,3451.61,3719.6,1
0,1,0,0,1,1,-0.17,-0.06,-1.13,6766.75,1959.06,-151.36,1
0,1,0,0,1,1,-0.16,0.1,-1.12,7982.63,-1627.79,-2276.68,1
0,1,0,0,1,1,-0.09,0.19,-1.15,1772.95,-2910.67,-5400.75,1
0,1,1,0,1,1,-0.03,0.15,-1.14,-1370.97,-3588.09,-4297.77,1
0,1,1,0,1,1,0.04,0.12,-1.14,-3043.43,-1325.06,23.57,1
0,1,0,0,1,1,0.04,0.01,-1.15,-3658.81,2928.04,2812.66,1
0,1,0,0,1,1,-0.05,-0.09,-1.16,-1652.61,3715.88,3646.4,1
0,1,0,0,1,1,-0.16,-0.16,-1.09,5781.64,2348.64,2500,1
0,1,0,0,1,1,-0.12,0.05,-1.12,8050.87,828.78,-549.63,1
0,1,0,0,1,1,-0.1,0.16,-1.13,3782.88,-2033.5,-3599.26,1
0,1,1,0,1,1,-0.05,0.17,-1.14,-147.64,-2841.19,-2867.25,1
0,1,1,0,1,1,0,0.15,-1.13,-2636.48,-1758.07,-220.84,1
0,1,0,0,1,1,0.01,0.06,-1.18,-4286.6,2331.27,1830.03,1
0,1,0,0,1,1,-0.08,-0.03,-1.15,-1256.82,3433,3375.93,1
0,1,0,0,1,1,-0.16,-0.12,-1.15,4531.02,2817.62,1678.66,1
0,1,0,0,1,1,-0.19,0.01,-1.09,7801.49,86.85,-919.36,1
0,1,1,0,1,1,-0.07,0.25,-1.11,5142.68,-2916.87,-2625.31,1
0,1,1,0,1,1,-0.06,0.18,-1.11,-1552.11,-3988.84,-2954.1,1
0,1,1,0,1,1,0.07,0.14,-1.14,-4027.3,-2585.61,-409.43,1
0,1,1,0,1,1,0.07,0.03,-1.16,-5212.16,2877.17,2024.81,1
0,1,0,0,1,1,-0.05,-0.15,-1.17,-2048.39,4892.06,3906.95,1
0,1,0,0,1,1,-0.12,-0.06,-1.12,6782.88,3068.24,1488.83,1
0,1,0,0,1,1,-0.18,0.11,-1.13,8126.56,-1490.08,-1931.76,1
0,1,0,0,1,1,-0.09,0.18,-1.16,2715.88,-2874.69,-2838.71,1
0,1,1,0,1,1,-0.03,0.14,-1.15,-1503.72,-2704.72,-2687.35,1
0,1,1,0,1,1,0.04,0.1,-1.15,-4208.44,-607.94,-834.99,1
0,1,0,0,1,1,-0.01,-0.03,-1.15,-3868.49,1718.36,1014.89,1
0,1,0,0,1,1,-0.05,-0.09,-1.16,-527.3,2792.81,1357.32,1
0,1,0,0,1,1,-0.11,-0.05,-1.14,4116.63,1859.8,677.42,1
1,0,1,1,1,0,0.12,1.01,-0.05,57.91,-143.56,519.51,2
1,0,1,1,1,0,0.15,0.98,-0.1,710.43,-321.47,47.36,2
1,0,1,1,1,0,0.11,0.96,-0.16,463.8,131.78,-243.19,2
1,0,1,1,1,0,0.1,0.97,-0.14,-17.91,299.39,-764.91,2
1,0,1,1,1,0,0.05,1,-0.17,51.29,202.7,-737.18,2
1,0,1,1,1,0,0,0.98,-0.18,-161.47,208.1,-551.9,2
1,0,1,1,1,0,0,0.96,-0.16,-1147.73,23.8,353.37,2
1,0,1,1,1,0,0.03,0.98,-0.09,-1319.75,-35.58,661.6,2
1,0,1,1,1,0,0.07,0.98,-0.06,-641.72,-94.48,556.32,2
1,0,1,1,1,0,0.11,0.98,-0.03,224.05,-340.37,470.43,2
1,0,1,1,1,0,0.13,0.96,-0.09,542.33,-282.7,183.31,2
1,0,1,1,1,0,0.14,0.97,-0.13,301.84,-166.63,-44.91,2
1,0,1,1,1,0,0.12,0.96,-0.15,70.18,118.53,-401.47,2
1,0,1,1,1,0,0.08,0.96,-0.18,76.32,365.89,-707.73,2
1,0,1,1,1,1,0.03,0.92,-0.2,-153.62,540.37,-686.63,2
1,0,1,1,1,1,0.01,1.01,-0.12,-1141.35,227.73,91.53,2
1,0,1,1,1,0,0.02,0.98,-0.09,-1104.79,119.26,505.52,2
1,0,1,1,1,0,0.07,0.98,-0.05,-445.89,37.55,480,2
1,0,1,1,1,0,0.11,0.98,-0.05,-29.69,-375.46,530.55,2
1,0,1,1,1,0,0.17,0.92,-0.14,-5.15,-279.75,849.82,2
1,0,1,1,1,0,0.18,0.98,-0.09,800,176.69,-227.73,2
1,0,1,1,0,0,0.18,0.99,-0.21,389.94,287.85,-646.87,2
1,0,1,1,1,0,0.1,1.01,-0.16,-263.56,122.94,-467.24,2
1,0,1,1,1,0,0.08,0.95,-0.24,-300.37,311.17,-705.52,2
1,0,1,1,1,0,0.03,0.98,-0.13,-738.9,-286.13,187.98,2
1,0,1,1,1,0,0.05,0.98,-0.03,-726.14,-428.71,394.6,2
1,0,1,1,1,0,0.13,0.99,0,-754.85,-72.64,509.94,2
1,0,1,1,1,0,0.14,0.97,-0.03,626.75,-282.94,260.86,2
1,0,1,1,1,0,0.15,0.98,-0.15,520.98,426.75,-389.2,2
1,0,1,1,1,0,0.12,0.99,-0.12,-293.5,760.98,-506.26,2
1,0,1,1,1,0,0.07,1,-0.13,-786.5,157.55,-357.3,2
1,0,1,1,1,0,0.03,0.97,-0.07,-670.92,67.48,-231.17,2
1,0,1,1,1,0,0.07,1,-0.02,-793.62,-3.44,736.2,2
1,0,1,1,1,0,0.12,1.01,0.01,-390.92,-96.69,896.93,2
1,0,1,1,1,0,0.18,0.96,-0.03,610.55,-616.93,334.48,2
1,0,1,1,1,0,0.17,0.96,-0.1,532.76,-104.54,-176.44,2
1,0,1,1,1,0,0.15,0.96,-0.15,966.63,212.02,-878.77,2
1,0,1,1,1,0,0.08,0.93,-0.2,737.42,212.02,-1331.53,2
1,0,1,1,1,1,0,0.97,-0.21,-907.48,267.48,-912.39,2
1,0,1,1,1,1,-0.01,0.99,-0.15,-1326.63,72.39,-461.35,2
1,0,1,1,1,1,-0.03,0.98,-0.08,-1281.23,-66.26,286.13,2
1,0,1,1,1,0,0,0.99,-0.04,-465.28,-70.18,727.85,2
1,0,1,1,1,0,0.06,0.98,-0.05,-474.85,-215.71,1139.63,2
1,0,1,1,1,0,0.15,1.01,-0.02,40.74,-322.45,1202.45,2
1,0,1,1,1,0,0.21,0.97,-0.07,1286.38,-401.72,409.33,2
1,0,1,1,0,0,0.18,0.92,-0.15,696.93,-136.69,-436.56,2
1,0,1,1,0,0,0.14,0.95,-0.22,271.41,164.17,-1218.65,2
1,0,1,1,1,0,0.06,0.98,-0.2,41.47,205.15,-1527.85,2
1,0,1,1,1,0,-0.05,0.96,-0.23,-973.25,-110.43,-966.14,2
1,0,1,1,1,1,-0.06,0.99,-0.21,-1121.23,-109.45,-37.3,2
1,0,1,1,1,1,-0.04,0.97,-0.13,-1388.71,-26.26,720.49,2
1,0,1,1,1,0,-0.02,1.01,-0.01,-868.47,-144.79,975.95,2
1,0,1,1,1,0,0.06,1,0.01,-350.92,-131.78,1112.39,2
1,0,1,1,1,0,0.13,0.96,-0.02,556.56,-243.19,739.88,2
1,0,1,1,1,0,0.17,0.94,-0.07,1313.37,-144.05,-149.94,2
1,0,1,1,1,0,0.12,0.93,-0.2,672.88,115.09,-887.12,2
1,0,1,1,1,0,0.06,0.97,-0.21,333.74,240.98,-1270.43,2
1,0,1,1,1,0,-0.03,0.98,-0.21,-502.09,219.88,-1047.85,2
1,0,1,1,1,0,-0.07,1,-0.17,-1231.9,86.13,-391.9,2
1,0,1,1,1,0,-0.07,1,-0.11,-1166.63,-140.12,648.34,2
1,0,1,1,1,0,0,0.99,-0.05,-872.39,-153.13,1200.25,2
1,0,1,1,1,0,0.09,0.97,-0.04,-166.63,-107.98,1317.55,2
1,0,1,1,1,0,0.16,0.98,-0.05,817.18,-282.94,734.23,2
1,0,1,1,1,0,0.15,0.92,-0.15,824.29,-119.75,-274.36,2
1,0,1,1,0,0,0.11,0.92,-0.23,322.94,90.55,-963.44,2
1,0,1,1,1,0,0.05,0.98,-0.19,79.02,207.12,-1232.39,2
1,0,1,1,1,0,-0.03,0.98,-0.2,-673.62,171.78,-1048.34,2
1,0,1,1,1,0,-0.06,1,-0.16,-1299.39,38.77,-344.29,2
1,0,1,1,1,0,-0.05,1.01,-0.08,-1318.28,-145.28,534.48,2
1,0,1,1,1,0,0.02,1.02,-0.05,-936.2,-154.36,1297.91,2
1,0,1,1,1,0,0.08,0.98,0,-115.58,-171.53,1121.23,2
1,0,1,1,1,0,0.15,1,0,633.62,-330.8,766.87,2
1,0,1,1,1,0,0.16,0.91,-0.12,673.62,-241.23,173.25,2
1,0,1,1,1,0,0.14,0.93,-0.15,277.55,69.2,-614.72,2
1,0,1,1,1,0,0.07,0.96,-0.19,321.96,260.61,-1331.29,2
1,0,1,1,1,0,0,1.01,-0.17,35.58,308.71,-1282.7,2
1,0,1,1,1,0,-0.04,1,-0.21,-491.29,277.79,-536.44,2
1,0,1,1,1,1,-0.05,0.99,-0.12,-1291.29,81.23,268.71,2
1,0,1,1,1,1,-0.01,0.99,-0.11,-1382.33,-125.4,865.28,2
1,0,1,1,1,0,0.06,0.98,-0.03,-427.24,-243.19,1030.18,2
1,0,1,1,1,0,0.11,0.99,-0.02,323.68,-354.11,551.17,2
1,0,1,1,1,0,0.15,0.97,-0.09,837.06,-448.34,222.58,2
1,0,1,1,1,0,0.13,0.97,-0.15,415.46,-119.26,-361.47,2
1,0,1,1,1,0,0.08,0.96,-0.19,627.24,259.39,-1097.67,2
1,0,1,1,1,0,0.01,0.96,-0.19,-228.47,446.87,-1013.74,2
1,0,1,1,1,1,-0.05,0.95,-0.16,-1390.18,326.38,-509.45,2
1,0,1,1,1,1,-0.05,1,-0.11,-1664.29,1.96,284.91,2
1,0,1,1,1,0,0.01,0.97,-0.01,-1343.8,-295.95,1090.8,2
1,0,1,1,1,0,0.09,0.97,0.05,-332.27,-502.82,1106.01,2
1,0,1,1,1,0,0.15,0.98,-0.01,1308.71,-439.26,378.9,2
1,0,1,1,1,0,0.12,0.93,-0.13,470.43,-57.18,-16.69,2
1,0,1,1,1,0,0.09,0.99,-0.14,297.42,82.7,-767.36,2
1,0,1,1,1,0,0.07,0.96,-0.27,-309.94,33.62,-605.4,2
1,0,1,1,1,0,0,0.97,-0.14,-683.68,337.67,-587.24,2
1,0,1,1,1,0,-0.01,0.97,-0.1,-885.4,491.78,-470.67,2
1,0,1,1,1,0,0,1.01,-0.05,-1042.94,123.19,490.06,2
1,0,1,1,1,0,0.03,0.96,-0.02,-587.73,-184.05,992.15,2
1,0,1,1,1,0,0.11,0.97,0.01,406.38,-479.26,701.6,2
1,0,1,1,1,0,0.11,0.96,-0.07,1334.48,-354.6,56.44,2
1,0,1,1,1,0,0.08,0.92,-0.18,893.25,141.84,-750.18,2
1,0,1,1,1,0,0.01,0.97,-0.21,324.91,382.58,-1342.09,2
1,0,1,1,1,1,-0.05,0.99,-0.22,-574.97,283.68,-1223.56,2
1,0,1,1,1,1,-0.11,0.98,-0.17,-1440.98,69.94,-280,2
1,0,1,1,1,1,-0.08,1,-0.11,-1413.25,-186.99,873.13,2
1,0,1,1,1,1,0,1,-0.04,-1039.51,-458.16,1383.56,2
1,0,1,1,1,0,0.06,0.93,-0.04,145.28,-474.6,1116.32,2
1,0,1,1,1,0,0.12,0.94,-0.07,666.26,-342.58,424.05,2
1,0,1,1,1,0,0.11,0.94,-0.14,460.86,0.49,-291.29,2
1,0,1,1,1,0,0.05,0.96,-0.17,373.25,156.81,-1219.88,2
1,0,1,1,1,0,0.01,0.98,-0.17,171.78,269.45,-852.76,2
1,0,1,1,1,0,-0.04,0.96,-0.16,-493.99,391.41,-583.31,2
1,0,1,1,1,1,-0.05,0.96,-0.14,-1414.72,65.28,78.53,2
1,0,1,1,1,1,0.03,1.05,-0.01,-1480.25,-303.07,932.27,2
1,0,1,1,1,0,0.06,1.01,0,-406.87,-301.35,903.31,2
1,0,1,1,1,0,0.1,0.99,-0.01,465.77,-405.4,562.45,2
1,0,1,1,1,0,0.12,0.95,-0.08,720,-318.77,253.25,2
1,0,1,1,1,0,0.08,0.93,-0.15,688.83,91.29,-569.82,2
1,0,1,1,1,0,0.03,0.96,-0.21,421.6,318.28,-1353.13,2
1,0,1,1,1,0,-0.05,1,-0.21,-102.09,414.23,-1264.54,2
,,,,,,,,,,,,2
1,0,1,1,1,1,-0.1,0.99,-0.18,-820.12,396.81,-661.84,2
1,0,1,1,1,1,-0.09,1,-0.13,-1370.06,25.52,138.4,2
1,0,1,1,1,1,-0.07,1.03,-0.05,-1269.45,-421.84,1043.44,2
1,0,1,1,1,0,-0.03,0.94,-0.05,-422.09,-451.78,1123.44,2
1,0,1,1,1,0,0.03,0.93,-0.2,498.16,-509.45,842.45,2
1,0,1,1,1,0,0.08,0.94,-0.14,971.78,-331.29,437.06,2
1,0,1,1,1,0,0.08,0.95,-0.2,692.76,218.9,-821.84,2
1,0,1,1,1,0,0.01,0.98,-0.19,-91.78,412.27,-1054.97,2
1,0,1,1,1,1,-0.06,0.98,-0.15,-1443.19,480.25,-594.36,2
1,0,1,1,1,1,-0.04,1.04,-0.08,-1865.03,95.21,349.2,2
1,0,1,1,1,0,0.01,0.98,-0.04,-648.1,-286.38,1081.23,2
1,0,1,1,1,0,0.08,0.93,-0.04,696.2,-557.79,856.93,2
1,0,1,1,1,0,0.1,0.94,-0.12,922.21,-330.55,113.62,2
1,0,1,1,1,0,0.05,0.93,-0.2,295.46,99.63,-788.71,2
1,0,1,1,1,0,0.01,0.98,-0.22,-97.67,260.37,-997.55,2
1,0,1,1,1,1,-0.03,0.99,-0.16,-1110.43,551.17,-431.17,2
1,0,1,1,1,1,-0.04,1,-0.11,-1664.79,271.66,433.62,2
1,0,1,1,1,0,0.02,0.99,-0.01,-700.37,-78.53,881.23,2
1,0,1,1,1,0,0.09,1,0.05,388.47,-427.73,961.47,2
1,0,1,1,1,0,0.14,0.97,-0.08,927.12,-392.88,226.99,2
1,0,1,1,1,0,0.11,0.94,-0.18,640.74,-4.66,-606.87,2
1,0,1,1,1,0,0,0.96,-0.18,127.61,253.25,-1205.4,2
1,0,1,1,1,0,-0.05,0.98,-0.21,-465.28,428.96,-1077.55,2
1,0,1,1,1,1,-0.08,0.95,-0.17,-1265.77,388.71,-320.98,2
1,0,1,1,1,1,-0.04,1,-0.09,-1480.98,-24.79,877.79,2
1,0,1,1,1,0,-0.01,0.95,-0.03,-553.62,-258.4,1080.98,2
1,0,1,1,1,0,0.08,0.98,-0.03,601.96,-473.13,679.26,2
1,0,1,1,1,0,0.09,0.94,-0.1,935.71,-486.87,185.52,2
1,0,1,1,1,0,0.08,0.91,-0.2,478.28,6.38,-746.5,2
1,0,1,1,1,0,-0.01,0.98,-0.2,-84.17,286.38,-1121.72,2
1,0,1,1,1,0,-0.05,0.98,-0.2,-753.37,433.87,-996.56,2
1,0,1,1,1,1,-0.09,1.02,-0.13,-2049.82,244.66,-15.46,2
1,0,1,1,1,1,-0.07,1.02,0,-1420.86,-120.49,977.18,2
1,0,1,1,1,0,0.02,1.01,0.06,-333.74,-399.51,1306.5,2
1,0,1,1,1,0,0.11,0.97,0.03,1032.64,-694.23,1183.56,2
1,0,1,1,1,0,0.18,0.92,-0.07,1206.38,-527.12,340.86,2
1,0,1,1,0,0,0.12,0.85,-0.24,778.65,73.62,-1292.02,2
1,0,1,1,1,0,0.03,0.97,-0.21,-59.39,476.81,-1963.68,2
1,0,1,1,1,1,-0.1,0.97,-0.2,-970.06,465.28,-1624.79,2
1,0,1,1,1,1,-0.14,0.96,-0.08,-2150.18,183.07,-26.99,2
1,0,1,1,1,1,-0.11,1.03,-0.01,-1827.98,-173.99,1002.45,2
1,0,1,1,1,1,-0.2,0.82,-0.05,-71.41,-325.89,1676.56,2
1,0,1,1,1,1,-0.57,0.84,-0.23,683.44,1445.89,3404.42,2
1,0,1,1,1,1,-0.04,1.03,-0.48,-1713.13,864.29,496.93,2
1,1,1,1,1,1,0.01,1.24,-0.17,-608.34,-229.69,-598.28,2
1,1,1,1,1,1,0.29,0.9,-0.26,2045.89,1871.17,-1296.44,2
1,1,1,1,1,1,0.29,-2,-0.1,-2342.82,673.13,-2043.19,2
1,0,1,1,1,1,-0.21,1.16,-0.32,-1905.03,1127.61,342.33,2
1,0,1,1,1,1,-0.14,0.92,-0.16,-668.71,758.77,-32.88,2
1,0,1,1,1,1,0.01,0.96,0.09,-3363.44,-479.51,-19.63,2
1,0,1,1,1,0,0.22,1.08,0.08,-1967.12,-1762.45,1770.06,2
1,0,1,1,1,0,0.19,1.03,0.15,1467.48,-1786.99,2376.69,2
1,0,1,1,1,0,0.15,0.95,0.02,2277.55,-475.09,779.88,2
1,0,1,1,0,0,0.17,0.9,-0.15,1583.31,180.12,-1357.79,2
1,0,1,1,1,1,0.09,0.91,-0.23,956.56,667.48,-2637.06,2
1,0,1,1,1,1,-0.11,0.93,-0.32,-565.4,531.78,-2551.17,2
1,0,1,1,1,1,-0.14,0.98,-0.1,-2940.61,-351.9,-601.72,2
1,0,1,1,1,0,-0.01,1.07,0.05,-2226.75,-1112.15,848.59,2
1,0,1,1,1,0,0.05,1.08,0.13,247.36,-1436.56,1627.73,2
1,0,1,1,1,0,0.12,1,0.03,2152.64,-826.5,1351.41,2
1,0,1,1,1,0,0.15,0.94,-0.16,2090.8,-78.77,142.33,2
1,0,1,1,0,1,0.05,0.88,-0.25,1088.83,638.77,-1555.58,2
1,0,1,1,1,1,-0.07,0.98,-0.25,-951.41,855.71,-1938.16,2
1,0,1,1,1,1,-0.14,1.01,-0.21,-1753.62,487.61,-1115.83,2
1,0,1,1,1,1,-0.1,1.04,-0.1,-2144.29,-662.33,713.87,2
1,0,1,1,1,0,-0.01,1.04,0.04,-1194.11,-1380.86,2258.9,2
1,0,1,1,1,0,0.13,0.96,-0.02,1508.71,-1118.28,1441.23,2
1,0,1,1,1,0,0.18,0.89,-0.2,2594.11,12.02,-507.24,2
1,0,1,1,0,1,0.06,0.9,-0.29,478.77,617.91,-1818.16,2
1,0,1,1,1,1,-0.06,0.98,-0.28,-1672.39,667.48,-1670.92,2
1,0,1,1,1,1,-0.15,1.02,-0.14,-2410.06,79.51,-282.21,2
1,0,1,1,1,1,-0.07,1,-0.02,-2064.05,-797.06,1386.5,2
1,0,1,1,1,0,0.07,0.95,0.01,-170.55,-1488.1,2037.06,2
1,0,1,1,1,0,0.18,0.94,-0.03,1485.64,-605.4,683.68,2
1,0,1,1,0,0,0.13,0.89,-0.2,2441.23,693.5,-1753.37,2
1,0,1,1,1,1,-0.01,0.97,-0.25,660.37,997.06,-2245.4,2
1,0,1,1,1,1,-0.1,0.91,-0.28,-1504.05,665.77,-1116.07,2
1,0,1,1,1,1,-0.12,0.97,-0.13,-2505.28,-141.35,82.94,2
1,0,1,1,1,0,-0.09,1,0.01,-1912.88,-1073.37,1478.53,2
1,0,1,1,1,0,-0.01,0.92,0.02,64.54,-1506.01,1849.57,2
1,0,1,1,1,0,0.18,0.94,-0.06,1460.61,-1031.66,1257.18,2
1,0,1,1,0,0,0.2,0.9,-0.23,1805.89,45.4,-419.39,2
1,0,1,1,0,1,0.11,0.92,-0.26,1064.79,823.56,-1976.2,2
1,0,1,1,1,1,0.01,0.99,-0.29,-888.59,1024.54,-1943.31,2
1,0,1,1,1,1,-0.12,1,-0.15,-2746.26,449.57,-846.87,2
1,0,1,1,1,1,-0.08,1.05,0.02,-2461.84,-1018.65,1341.6,2
1,0,1,1,1,0,0.06,1.01,0.08,596.07,-1375.71,1815.21,2
1,0,1,1,1,0,0.13,0.96,-0.06,2074.36,-339.39,833.87,2
1,0,1,1,0,0,0.1,0.9,-0.2,2229.69,666.01,-1316.07,2
1,0,1,1,1,1,-0.02,0.9,-0.24,-201.72,828.47,-1985.77,2
1,0,1,1,1,1,-0.08,0.96,-0.22,-2253.01,698.4,-1018.4,2
1,0,1,1,1,1,-0.09,1.01,-0.1,-2474.11,-497.18,874.85,2
1,0,1,1,1,0,-0.01,0.96,0.02,-881.23,-1200.74,1664.79,2
1,0,1,1,1,0,0.09,0.94,0,1672.64,-778.4,985.03,2
1,0,1,1,1,0,0.15,0.94,-0.16,2222.09,291.29,-221.35,2
1,0,1,1,0,1,0.06,0.95,-0.22,693.01,708.47,-2056.69,2
1,0,1,1,1,1,-0.03,0.98,-0.28,-1540.12,708.71,-1941.1,2
1,0,1,1,1,1,-0.13,1.06,-0.14,-3043.19,-460.37,456.2,2
1,0,1,1,1,0,-0.08,0.96,-0.04,-1749.2,-1350.92,1835.09,2
1,0,1,1,1,0,0.07,0.94,0.06,1299.88,-1126.87,1578.65,2
1,0,1,1,1,0,0.12,0.91,-0.05,2028.71,193.87,27.73,2
1,0,1,1,0,0,0.08,0.9,-0.18,1129.08,951.41,-1873.87,2
1,0,1,1,1,1,-0.04,0.96,-0.21,-904.05,869.45,-2045.89,2
1,0,1,1,1,1,-0.15,1.02,-0.11,-2480.74,-261.1,-489.08,2
1,0,1,1,1,1,-0.05,1.03,0.01,-2916.07,-1366.63,1805.15,2
1,0,1,1,1,0,0.08,1,0.12,623.07,-1634.6,1577.67,2
1,0,1,1,1,0,0.16,0.97,-0.01,2821.1,94.48,-192.39,2
1,0,1,1,1,0,0.06,0.93,-0.22,1884.66,1207.61,-1766.63,2
1,0,1,1,1,1,-0.08,0.94,-0.21,-1309.94,1127.36,-1349.94,2
1,0,1,1,1,1,-0.1,0.98,-0.12,-2806.87,74.36,-787.98,2
1,0,1,1,1,1,-0.1,0.97,0.03,-2602.94,-1022.33,634.11,2
1,0,1,1,1,0,-0.03,0.93,0.12,-143.07,-1929.82,1569.08,2
1,0,1,1,1,0,0.1,0.86,0,2524.66,-858.16,707.98,2
1,0,1,1,1,0,0.09,0.92,-0.14,2294.48,1190.18,-1257.67,2
1,0,1,1,1,1,-0.01,0.94,-0.2,-817.42,1475.34,-1251.53,2
1,0,1,1,1,1,-0.08,0.96,-0.1,-2114.6,511.17,-975.21,2
1,0,1,1,1,1,-0.1,0.98,0.02,-2239.75,-555.83,333.25,2
1,0,1,1,1,0,0.01,0.96,0.13,-1035.83,-1512.64,1354.36,2
1,0,1,1,1,0,0.07,0.93,0.16,610.06,-1864.54,1580.12,2
,,,,,,,,,,,,2
1,0,1,1,1,0,0.2,0.89,-0.06,2466.26,-567.36,16.69,2
1,0,1,1,0,0,0.14,0.94,-0.17,2052.52,827.73,-1675.09,2
1,0,1,1,1,1,-0.01,0.99,-0.19,212.27,1051.29,-1973.5,2
1,0,1,1,1,1,-0.09,0.97,-0.18,-2038.04,788.22,-1132.52,2
1,0,1,1,1,1,-0.13,1.03,0,-2933.25,-256.2,277.06,2
1,0,1,1,1,0,-0.05,1.01,0.15,-1420.61,-1175.21,1528.83,2
1,0,1,1,1,0,0.1,1.01,0.15,1314.11,-1572.02,1720.74,2
1,0,1,1,1,0,0.18,1,0.01,2220.37,-386.01,309.2,2
1,0,1,1,0,0,0.1,0.92,-0.17,1923.19,261.35,-1357.79,2
1,0,1,1,1,1,-0.01,0.91,-0.26,623.07,846.14,-2899.88,2
1,0,1,1,1,1,-0.17,0.95,-0.24,-2221.1,938.9,-1738.16,2
1,0,1,1,1,1,-0.16,1.04,-0.07,-3137.42,-419.88,668.71,2
1,0,1,1,1,0,-0.07,1.05,0.06,-1839.26,-933.25,2041.23,2
1,0,1,1,1,0,0.02,1,0.06,1188.96,-1303.31,2631.9,2
1,0,1,1,1,0,0.15,0.89,0.08,1271.41,-457.18,1235.83,2
1,0,1,1,0,0,0.2,0.85,-0.17,2133.01,575.71,-2569.82,2
1,0,1,1,1,0,-0.03,0.92,-0.26,-296.44,723.93,-2257.42,2
1,0,1,1,1,1,-0.14,0.97,-0.12,-2962.21,11.53,-440.25,2
1,0,1,1,1,1,-0.08,0.97,0.02,-2253.25,-764.17,1189.45,2
1,0,1,1,1,0,0.01,0.97,0.12,-57.18,-466.01,1297.91,2
1,0,1,1,1,0,0.13,0.97,0.07,1218.9,-488.59,1204.17,2
1,0,1,1,1,0,0.19,0.88,-0.14,2119.51,380.12,-919.02,2
1,0,1,1,1,0,0.05,0.95,-0.2,574.72,1400.98,-3500.12,2
1,0,1,1,1,1,-0.21,1.03,-0.1,-3112.88,247.61,-1178.16,2
1,0,1,1,1,1,-0.16,1.03,0.05,-3087.36,-745.03,741.35,2
1,0,1,1,1,0,-0.06,0.93,0.12,-577.91,-1037.79,1619.39,2
1,0,1,1,1,0,0.1,0.99,0.15,1653.74,-826.99,2261.35,2
1,0,1,1,1,0,0.16,0.9,-0.07,2545.03,398.53,53.01,2
1,0,1,1,1,0,0.09,0.97,-0.16,1209.82,859.39,-2001.47,2
1,0,1,1,1,1,-0.01,0.95,-0.21,-652.76,677.3,-1523.68,2
1,0,1,1,1,1,-0.12,0.99,-0.11,-2255.21,154.36,-721.47,2
1,0,1,1,1,1,-0.13,1.02,0.03,-2846.13,-496.2,292.76,2
1,0,1,1,1,0,-0.04,0.94,0.09,-957.3,-1265.77,1310.18,2
1,0,1,1,1,0,0.05,0.93,0.12,1197.3,-1134.72,1544.29,2
1,0,1,1,1,0,0.1,0.87,-0.06,1898.41,-56.2,253.5,2
1,0,1,1,1,0,0.1,0.91,-0.16,1284.17,606.63,-1388.22,2
1,0,1,1,1,0,0.01,0.92,-0.21,-85.4,771.78,-1402.7,2
1,0,1,1,1,1,-0.1,0.93,-0.19,-826.99,617.67,-1543.8,2
1,0,1,1,1,1,-0.15,1.04,-0.08,-2138.65,-127.61,-279.02,2
1,0,1,1,1,1,-0.08,0.97,0.07,-2137.91,-729.33,911.9,2
1,0,1,1,1,0,-0.04,1.01,0.14,-621.1,-575.21,654.97,2
1,0,1,1,1,0,0.04,1.03,0.11,587.48,-598.28,1029.2,2
1,0,1,1,1,0,0.09,0.98,0,1568.59,-540.61,898.16,2
1,0,1,1,1,0,0.1,0.94,-0.07,1444.42,148.71,-237.55,2
1,0,1,1,1,0,0.07,0.94,-0.22,931.04,570.8,-1099.14,2
1,0,1,1,1,0,-0.03,0.96,-0.19,-526.38,310.43,-784.79,2
1,0,1,1,1,1,-0.08,0.99,-0.12,-2535.21,43.19,-420.37,2
1,0,1,1,1,0,-0.09,0.97,0.1,-3631.66,-243.44,397.3,2
1,0,1,1,1,0,-0.03,0.85,0.26,-3294.97,-437.06,581.84,2
1,0,1,1,1,0,0.05,0.84,0.38,-2350.92,-242.45,252.27,2
1,0,1,1,1,0,0.05,0.83,0.36,113.62,447.12,-315.58,2
1,0,1,1,1,0,0,0.92,0.34,1854.97,488.83,-490.06,2
1,0,1,1,1,0,-0.03,0.99,0.25,3689.82,524.17,-442.7,2
1,0,1,1,1,1,-0.12,0.87,0.03,4834.6,55.95,-572.76,2
1,0,1,1,1,1,-0.05,0.85,-0.25,4824.54,-418.9,-599.75,2
1,0,1,1,1,1,-0.13,0.77,-0.55,4275.58,-488.34,700.37,2
1,0,1,1,1,1,-0.14,0.73,-0.73,1877.3,-40,482.94,2
1,0,1,1,1,1,-0.06,0.58,-0.78,64.29,16.2,591.17,2
1,0,1,1,1,1,-0.09,0.65,-0.76,-2853.74,-311.17,24.79,2
1,0,1,1,1,1,-0.07,0.93,-0.57,-3855.46,1.72,-504.54,2
1,0,1,1,1,1,-0.2,0.98,-0.33,-2936.44,-16.69,-1315.58,2
1,0,1,1,1,1,-0.24,0.95,-0.23,-2723.68,106.01,-1293.74,2
1,0,1,1,1,1,-0.32,0.91,-0.14,-1080.74,324.42,-1790.92,2
1,0,1,1,1,1,-0.42,0.88,-0.14,0.49,-134.72,-1357.79,2
1,0,1,1,1,1,-0.46,1,-0.15,-142.82,-185.03,1098.4,2
1,0,1,1,1,1,-0.31,1.09,-0.12,-152.39,-244.91,3183.07,2
1,0,1,1,1,1,-0.18,0.97,-0.09,-18.4,-412.76,4232.88,2
1,0,1,1,1,0,0.1,0.94,-0.13,-351.9,-320,3819.39,2
1,0,1,1,1,0,0.3,0.92,-0.07,-367.61,-316.81,2693.01,2
1,0,1,1,0,0,0.38,0.78,-0.09,-201.47,-192.15,546.01,2
1,0,1,1,0,0,0.4,0.82,-0.11,-1206.38,279.75,-1213.99,2
1,0,1,1,0,0,0.39,0.9,-0.01,-1888.34,578.4,-1696.44,2
1,0,1,1,1,0,0.2,0.85,0.17,-2515.83,913.87,-1483.68,2
1,0,1,1,1,1,0.04,0.69,-0.57,-3138.4,281.23,52.02,2
1,0,1,1,1,1,-0.14,0.9,-0.07,-4095.95,1614.97,-2594.36,2
1,0,1,1,1,1,0.04,0.69,-0.57,-3138.4,281.23,52.02,2
1,0,1,1,1,1,-0.14,0.9,-0.07,-4095.95,1614.97,-2594.36,2
1,0,1,1,1,1,0,1.03,0.17,-5255.71,-320.25,458.4,2
1,1,1,1,1,0,0.08,0.91,0.31,-2293.5,-2050.31,2512.39,2
1,1,1,1,1,0,0.28,0.85,0.36,633.13,-2258.16,2569.08,2
1,1,1,1,1,0,0.37,0.81,0.25,3071.66,-1816.44,1066.26,2
1,1,1,1,0,0,0.42,0.85,-0.05,3333.74,-461.84,-749.2,2
1,0,1,1,0,0,0.34,0.88,-0.21,2213.25,598.04,-2224.54,2
1,0,1,1,0,0,0.23,0.99,-0.26,1626.99,762.45,-3382.33,2
1,0,1,1,0,1,0.01,0.96,-0.36,1.72,935.95,-3277.79,2
1,0,1,1,1,1,-0.3,0.87,-0.29,-1019.39,850.06,-3436.07,2
1,0,1,1,1,1,-0.38,0.91,-0.32,209.08,911.9,-3320,2
1,0,1,1,1,1,-0.59,0.89,-0.31,266.01,552.88,-1924.66,2
1,0,1,1,1,1,-0.52,0.78,-0.46,122.7,-925.89,1403.44,2
1,0,1,1,1,1,-0.48,0.84,-0.5,3162.45,562.7,2397.79,2
1,0,1,1,1,1,-0.32,0.74,-0.62,3161.47,1643.93,2613.5,2
1,0,1,1,1,1,-0.12,0.54,-0.77,2487.12,1317.55,1798.28,2
1,0,1,1,1,1,-0.02,0.59,-0.92,-313.62,60.37,-66.75,2
1,0,1,1,1,1,-0.06,0.7,-0.9,-1787.98,-94.48,327.36,2
1,0,1,1,1,1,0,0.81,-0.74,-4523.93,-450.06,1302.58,2
1,0,1,1,0,1,0.04,0.95,-0.44,-5526.38,-720.74,1722.94,2
1,0,1,1,1,1,0.17,0.99,-0.04,-6841.72,-548.71,1690.06,2
1,0,1,1,1,0,0.21,0.85,0.3,-5459.39,-351.41,827.24,2
1,1,1,1,1,0,0.33,0.91,0.43,-1694.48,-459.88,-52.76,2
1,1,1,1,1,0,0.25,0.82,0.45,124.66,72.64,19.14,2
1,1,1,1,1,0,0.17,0.77,0.22,2456.69,2022.58,-2486.38,2
1,0,1,1,1,0,-0.05,0.89,0.28,1789.2,2649.57,-3747.24,2
1,0,1,1,1,0,-0.27,0.93,0.15,1601.23,2126.13,-3534.48,2
1,0,1,1,1,1,-0.45,0.86,-0.09,1470.18,1466.01,-2847.85,2
1,0,1,0,1,1,-0.55,0.99,-0.15,142.58,267.98,476.07,2
1,0,1,0,1,1,-0.44,1,-0.11,128.34,-1037.3,3564.66,2
1,0,1,1,1,1,-0.26,0.92,-0.08,544.79,-1254.48,5188.47,2
1,0,1,1,1,0,0.04,0.91,-0.05,213.25,-1319.75,5526.87,2
1,0,1,1,1,0,0.33,0.84,-0.16,608.34,-957.06,3807.85,2
1,0,1,1,0,1,0.53,0.78,-0.25,1378.65,-451.04,1484.66,2
1,0,1,1,0,1,0.57,0.74,-0.37,1180.86,-58.16,-1406.38,2
1,0,1,1,0,1,0.42,0.78,-0.34,-2894.72,582.58,-2353.13,2
1,0,1,1,0,1,0.29,0.87,-0.02,-6365.4,692.76,-786.26,2
1,0,1,1,1,0,0.27,0.77,0.25,-5446.38,178.65,-1156.07,2
1,1,1,1,1,0,0.25,0.78,0.52,-3874.85,179.39,-1076.32,2
1,1,1,1,1,0,0.26,0.78,0.71,-1010.8,-343.31,-591.66,2
1,1,1,1,1,0,0.27,0.81,0.61,2712.88,329.08,-348.71,2
1,1,1,1,1,0,0.13,0.94,0.31,6490.55,693.5,-1785.28,2
1,0,1,1,1,1,0.02,0.95,-0.02,6903.56,1010.8,-1738.65,2
,,,,,,,,,,,,2
1,0,1,1,1,1,-0.08,0.84,-0.35,4820.86,765.64,-839.51,2
1,0,1,1,1,1,-0.06,0.75,-0.66,897.91,57.42,189.2,2
1,0,1,1,1,1,-0.03,0.85,-0.72,-942.33,-179.39,-414.23,2
1,0,1,1,1,1,-0.14,0.77,-0.58,-1417.18,-60.61,-3405.64,2
1,0,1,1,1,1,-0.38,0.75,-0.45,-1509.2,-99.63,-4109.94,2
1,0,1,1,1,1,-0.49,0.67,-0.41,-1091.78,-199.26,-3069.69,2
1,0,1,1,1,1,-0.65,0.75,-0.4,-1392.39,-384.29,-1511.17,2
1,0,1,0,1,1,-0.71,0.88,-0.41,-677.3,-812.02,1423.31,2
1,0,1,0,1,1,-0.53,0.91,-0.19,-1001.72,-633.62,4179.88,2
1,0,1,1,1,1,-0.34,0.83,-0.18,-606.14,-1197.06,4284.42,2
1,0,1,1,1,1,-0.13,0.84,-0.2,1204.66,-560.74,2452.76,2
1,0,1,1,1,1,0,0.95,-0.31,844.91,102.58,1675.34,2
1,0,1,1,1,1,0.09,1.06,-0.36,-2227.48,53.74,1046.38,2
1,0,1,1,0,1,0.18,1.02,-0.18,-5074.85,52.02,639.75,2
1,0,1,1,1,0,0.2,0.86,0.21,-5213.99,-22.58,83.93,2
1,0,1,1,1,0,0.14,0.61,0.42,-5412.52,863.56,105.77,2
1,1,1,1,1,0,0.18,0.68,0.84,-2752.39,114.36,-338.16,2
1,1,1,1,1,0,0.15,0.65,0.77,2264.05,-189.69,-245.4,2
1,1,1,1,1,0,0.14,0.84,0.47,7367.85,-108.96,-1484.91,2
1,0,1,1,1,0,-0.04,0.94,0.08,7713.62,666.99,-1545.03,2
1,0,1,1,1,1,-0.07,0.9,-0.38,6743.07,1069.45,-1822.82,2
1,0,1,1,1,1,-0.12,0.73,-0.77,4940.12,1081.47,-1206.87,2
0,0,1,1,1,1,-0.13,0.61,-0.9,-629.94,437.55,783.31,2
1,0,1,1,1,1,-0.04,0.79,-0.71,-5412.02,-419.63,2426.75,2
1,0,1,1,0,1,0.03,0.86,-0.42,-6514.11,-353.62,1719.26,2
1,0,1,1,1,1,0.13,0.89,0,-6635.34,-77.79,598.28,2
1,1,1,1,1,0,0.2,0.91,0.38,-6493.99,107.24,342.82,2
1,1,1,1,1,0,0.17,0.76,0.69,-3655.95,-359.75,452.27,2
1,1,1,1,1,0,0.28,0.81,0.67,1279.75,-473.13,120,2
1,1,1,1,1,0,0.23,0.81,0.53,4077.79,-1700.86,884.17,2
1,0,1,1,1,0,0.29,0.72,0.23,3320,-2211.29,3103.56,2
1,0,1,1,1,0,0.47,0.67,-0.04,2784.29,-1351.9,2759.02,2
1,1,1,1,0,1,0.67,0.61,-0.14,613.5,-124.17,1458.9,2
1,0,1,1,0,1,0.79,0.67,-0.08,-370.55,76.32,-122.7,2
1,0,1,1,0,1,0.67,0.66,-0.42,795.34,988.47,-3200.74,2
1,0,1,1,0,0,0.33,0.71,-0.12,277.55,1702.09,-5370.55,2
1,0,1,1,1,0,0.1,0.89,-0.05,69.94,1529.82,-5649.57,2
1,0,1,1,1,1,-0.21,0.93,-0.07,4.17,1399.51,-5036.81,2
1,0,1,1,1,1,-0.54,0.93,-0.29,-307.24,438.28,-3666.26,2
1,0,1,0,1,1,-0.61,1,-0.24,-475.09,-514.36,343.07,2
1,0,1,0,1,1,-0.5,0.99,-0.14,1080.98,-228.22,3388.47,2
1,0,1,1,1,1,-0.29,0.89,-0.2,3356.07,51.53,4153.37,2
1,0,1,1,1,1,-0.14,0.75,-0.35,3776.2,739.63,3242.21,2
1,0,1,1,1,1,0.11,0.71,-0.52,904.05,380.37,170.8,2
1,0,1,1,0,1,0.11,0.96,-0.69,-3764.91,-456.69,311.66,2
1,0,1,1,0,1,0.18,0.96,-0.41,-6121.23,-405.64,1416.2,2
1,0,1,1,0,1,0.11,0.78,0.09,-6677.06,-247.85,1376.44,2
1,1,1,1,1,0,0.2,0.71,0.34,-6778.9,192.64,650.55,2
1,1,1,1,1,0,0.29,0.71,0.68,-1623.8,-341.84,-500.12,2
1,1,1,1,1,0,0.31,0.84,0.72,2153.62,-385.77,-466.99,2
1,1,1,1,1,0,0.2,0.83,0.38,5081.72,-231.9,-1225.52,2
1,0,1,1,1,0,0.15,0.83,-0.04,5829.45,152.15,-1875.83,2
1,0,1,1,1,1,0.09,0.92,-0.3,4580.61,478.53,-1456.93,2
1,0,1,1,1,1,0.01,0.99,-0.52,2243.93,411.53,-403.19,2
1,0,1,1,0,1,-0.01,0.93,-0.62,-546.99,337.18,-736.2,2
1,0,1,1,1,1,-0.1,0.77,-0.54,-894.48,760,-4065.52,2
1,0,1,1,1,1,-0.26,0.7,-0.48,-1235.83,577.67,-4004.91,2
1,0,1,1,1,1,-0.44,0.74,-0.45,-562.7,228.22,-2923.19,2
1,0,1,1,1,1,-0.56,0.86,-0.53,-747.98,-454.72,-140.37,2
1,0,1,1,1,1,-0.52,0.94,-0.52,399.26,-360.98,3210.55,2
1,0,1,1,1,1,-0.32,0.85,-0.42,1081.72,-272.39,5222.09,2
1,0,1,1,1,1,-0.07,0.87,-0.39,-60.12,-435.58,4930.31,2
1,0,1,1,1,1,0.22,0.9,-0.57,1271.17,-588.96,2970.55,2
1,0,1,1,0,1,0.32,0.82,-0.67,1328.34,-66.26,1082.21,2
1,0,1,1,0,1,0.3,0.7,-0.8,1706.26,-194.11,-2156.81,2
1,0,1,1,0,1,0.09,0.69,-0.75,245.4,10.55,-4981.1,2
1,0,1,1,1,1,-0.13,0.65,-0.69,-727.61,-487.36,-4326.14,2
1,0,1,1,1,1,-0.21,0.74,-0.69,-733.5,-520.49,-2476.56,2
1,0,1,1,1,1,-0.44,0.93,-0.85,-280.49,-307.24,263.31,2
1,0,1,1,1,1,-0.29,0.85,-0.73,-1334.48,-183.07,3742.58,2
1,0,1,1,1,1,-0.08,0.81,-0.46,-2910.18,-723.19,4810.06,2
1,0,1,1,1,1,0.16,0.75,-0.41,-2085.64,-649.82,4424.05,2
1,0,1,1,0,1,0.47,0.83,-0.39,-1036.81,-221.35,3352.88,2
1,0,1,1,0,1,0.51,0.88,-0.4,-642.94,56.2,905.77,2
1,0,1,1,0,1,0.5,0.82,-0.32,-2474.6,599.51,-2374.72,2
1,0,1,1,0,0,0.4,0.93,-0.08,-4742.82,607.12,-1324.66,2
1,0,1,1,1,0,0.39,0.89,0.18,-4404.42,-445.64,783.07,2
1,0,1,1,1,0,0.42,0.82,0.35,-2000.49,-898.16,690.31,2
1,1,1,1,1,0,0.56,0.96,0.48,1150.18,-643.93,-97.18,2
1,1,1,1,1,0,0.39,0.84,0.1,5603.44,-549.45,-1316.07,2
1,0,1,1,0,0,0.34,0.73,-0.27,2260.37,524.17,-331.78,2
1,0,1,1,0,0,0.31,0.82,-0.27,2778.9,570.06,-2408.34,2
1,0,1,1,0,0,0.26,1.02,-0.47,1615.71,306.01,-589.45,2
1,0,1,1,0,1,0.19,0.96,-0.48,-169.82,170.8,-210.06,2
1,0,1,1,0,1,0.11,0.8,-0.47,-23.07,586.5,-4578.16,2
1,0,1,1,1,1,-0.18,0.8,-0.41,263.31,491.78,-6078.28,2
1,0,1,1,1,1,-0.43,0.8,-0.49,-166.87,520.25,-3864.79,2
1,0,1,1,1,1,-0.53,0.73,-0.57,-1537.67,-520.98,-287.12,2
1,0,1,0,1,1,-0.51,0.86,-0.53,-949.69,-697.67,3110.67,2
1,0,1,1,1,1,-0.27,0.95,-0.42,2677.3,-109.2,3716.56,2
1,0,1,1,1,1,-0.14,0.71,-0.58,3799.75,1022.82,1443.44,2
1,0,1,1,1,1,-0.05,0.61,-0.7,2736.69,433.87,-413.74,2
1,0,1,1,1,1,-0.09,0.57,-1.02,-1821.1,-33.37,-229.94,2
1,0,1,1,1,1,-0.02,0.77,-0.8,-5919.75,-563.68,1160.49,2
1,0,1,1,1,1,-0.03,0.8,-0.21,-5931.78,-522.21,1174.48,2
1,0,1,1,1,1,0.04,0.88,0.03,-6755.58,-827.48,663.8,2
1,0,1,1,1,0,0.09,0.96,0.33,-5198.28,-761.23,453.25,2
1,1,1,1,1,0,0.19,0.93,0.6,-1511.17,-970.55,402.45,2
1,1,1,1,1,0,0.24,0.93,0.48,3627.48,-1122.94,882.21,2
1,0,1,1,1,0,0.23,0.77,0.14,544.54,-559.02,2442.21,2
1,0,1,1,1,0,0.37,0.76,0.28,-2464.54,-648.83,2651.78,2
1,1,1,1,1,0,0.55,0.61,0.37,-1150.43,-508.47,733.99,2
1,1,1,1,1,0,0.56,0.68,0.35,1007.61,858.4,-1512.15,2
1,1,1,1,1,0,0.29,0.72,0.26,1342.09,2533.01,-4309.94,2
1,1,1,1,1,0,0.04,0.92,0.33,72.39,2789.45,-4703.56,2
1,0,1,1,1,0,-0.24,0.81,0.26,-1912.39,2045.89,-3257.42,2
1,0,1,0,1,0,-0.39,1,0.47,-1942.58,-160.98,-448.1,2
1,0,1,1,1,0,-0.19,1.02,0.5,1010.55,-2311.17,4043.93,2
1,0,1,1,1,0,-0.07,0.8,0.33,2894.72,-2413.99,4593.87,2
1,0,1,1,1,0,0.17,0.75,0.12,659.39,-1664.05,3112.64,2
1,1,1,1,0,0,0.55,0.87,0.07,-386.5,-554.11,982.82,2
1,1,1,1,0,0,0.41,0.92,0.06,2315.09,955.09,-2857.67,2
1,0,1,1,1,1,0.18,0.96,-0.11,2730.31,1653.01,-5502.09,2
1,0,1,1,1,1,-0.1,0.93,-0.22,91.04,1804.17,-4585.03,2
1,0,1,1,1,1,-0.39,0.83,-0.16,-1810.31,838.77,-2805.15,2
1,0,1,1,1,1,-0.49,1.12,-0.18,-795.58,-876.32,-839.02,2
1,0,1,1,1,1,-0.36,1.08,-0.13,2353.62,-607.61,3105.52,2
1,0,1,1,1,1,-0.25,0.87,-0.2,3758.77,-235.58,3097.42,2
1,0,1,1,1,1,-0.07,0.7,-0.41,3302.33,-10.55,1946.26,2
1,1,0,1,1,0,-0.11,-0.95,0.86,-3197.36,436.29,860.39,3
1,1,0,1,1,1,-0.18,-0.81,-0.03,-3992.96,522.04,-529.26,3
1,1,0,1,1,1,-0.19,-1.06,-0.21,-847.84,-144.69,-577.89,3
0,1,0,1,1,1,-0.19,-1.12,-0.24,-21.14,-965.38,-4744.41,3
0,1,0,1,1,1,0.35,-0.75,-0.17,684.77,-75.78,-3819.24,3
0,1,0,1,0,1,0.94,-0.69,0.07,-54.82,989.61,1201.82,3
0,1,0,1,0,1,0.38,-0.89,0.04,-1356.48,900.94,4406.4,3
0,1,0,1,1,1,-0.09,-1.31,-0.06,-1984.02,-1099.75,-362.06,3
0,1,0,1,1,1,0.02,-0.93,-0.55,-2108.43,-1502.54,-4058.26,3
0,1,0,1,0,1,0.62,-0.45,-0.53,-613.63,37.8,-1461.81,3
0,1,0,1,0,1,0.5,-0.63,-0.47,1416.96,1086.52,3329.68,3
0,1,0,1,0,1,0.13,-1.13,-0.17,1929.9,224.42,2249.17,3
0,1,0,1,0,1,0.1,-0.98,-0.14,1639.49,360,1845.35,3
1,1,0,1,1,1,-0.08,-0.77,0.19,3924.4,951.97,4178.89,3
1,1,0,1,1,0,-0.69,-1.18,0.64,927.23,262.57,1754.11,3
1,1,1,1,1,0,-0.46,-0.97,0.46,-3428.65,-63.58,-2380.45,3
1,1,0,1,1,1,-0.2,-0.75,-0.12,-3025.53,591.12,-1824.56,3
1,1,0,1,1,1,-0.21,-1.11,-0.2,-1714.93,228.03,-1130.51,3
0,1,0,1,1,1,-0.14,-0.96,-0.32,-1482.26,-145.37,-3946.22,3
0,1,0,1,0,1,0.41,-0.65,-0.55,-693.88,133,-2206.9,3
0,1,0,1,0,1,0.44,-0.82,-0.49,1359.05,199.67,1098.38,3
0,1,0,1,0,1,0.06,-1.04,-0.29,3458.38,85.4,-1100.96,3
0,1,0,1,0,1,0.44,-0.85,0.12,3142.03,885.99,-2100.7,3
0,1,0,1,0,1,0.68,-0.72,0.48,702.47,1308.36,371,3
1,1,0,1,0,1,0.55,-0.86,0.52,-1135.15,167.54,715.87,3
0,1,0,1,0,1,0.37,-0.9,0.26,-3700.5,-1665.44,643.53,3
0,1,0,1,0,1,0.28,-0.92,-0.21,-2213.94,-2058.26,-2438.53,3
0,1,0,1,0,1,0.81,-0.66,-0.38,-1649.11,-422.55,-278.38,3
0,1,0,1,0,1,0.52,-0.76,-0.43,-174.76,-261.19,438.01,3
0,1,0,1,0,1,0.58,-0.71,-0.44,251.22,-180.08,1229.15,3
0,1,0,1,0,1,0.25,-0.68,-0.47,3222.79,1245.47,3089.1,3
0,1,0,1,0,1,0.12,-0.99,0.3,4816.06,1980.59,477.02,3
1,1,0,1,1,1,0.14,-0.88,0.67,590.95,3109.72,2234.39,3
1,1,0,1,1,0,-0.2,-1.05,0.62,-2394.89,1598.94,1850.51,3
1,1,0,1,1,1,-0.29,-0.94,0.25,-3169.18,171.15,-722.57,3
1,1,0,1,1,1,-0.21,-0.77,-0.37,-1393.42,-527.88,-1279.84,3
1,1,0,1,1,1,-0.06,-0.74,-0.25,1802.91,469.63,647.14,3
1,1,0,1,1,1,-0.28,-1.07,0.34,444.88,809.18,1711.66,3
1,1,0,1,1,1,-0.35,-1.24,0.35,-3756.17,-821.21,-1257.84,3
1,1,0,1,1,1,-0.26,-0.77,-0.5,-3186.88,-1253.38,-1803.42,3
0,1,0,1,1,1,-0.05,-0.79,-0.64,-1050.44,-806.08,-1720.26,3
0,1,0,1,1,1,0.01,-0.72,-0.64,640.78,263.43,345.91,3
0,1,0,1,1,1,-0.13,-0.81,-0.36,3867.01,449.7,1454.08,3
0,1,0,1,1,1,-0.16,-1.21,0.25,1233.79,715.87,3716.65,3
1,1,0,1,1,1,-0.49,-0.91,-0.06,43.13,405.53,1218.49,3
1,1,0,1,1,1,-0.56,-1.29,0.18,2.41,-631.33,-2115.31,3
1,1,0,1,1,1,-0.32,-0.89,-0.06,-1796.55,-1069.68,-4370.66,3
0,1,0,1,1,1,0.19,-0.91,-0.11,-949.22,-69.94,-1296.85,3
0,1,0,1,1,1,0.03,-1.22,-0.09,-133.17,-1003.35,-3439.31,3
0,1,0,1,0,1,0.7,-0.63,-0.21,-751.27,-26.46,-2666.21,3
0,1,0,1,0,1,0.45,-0.46,-0.18,1282.42,2440.08,5240.67,3
0,1,0,1,1,1,-0.06,-0.97,0.18,628.75,881.01,5630.57,3
1,1,0,1,1,1,-0.39,-0.99,0.17,-329.75,-533.21,2254.49,3
1,1,0,1,1,1,-0.59,-0.8,0.01,-239.88,-110.15,3368.17,3
1,1,0,0,1,1,-0.98,-0.79,0.06,388.69,-144.69,1184.81,3
1,1,0,0,1,1,-0.94,-1.02,0.34,-562.59,-252.43,-3634.51,3
1,1,0,0,1,1,-0.32,-0.55,-0.13,-1276.75,-628.75,-4124.42,3
1,1,0,1,1,1,-0.06,-0.97,0.07,-421.34,308.45,-497.98,3
0,1,0,1,1,1,-0.14,-1.12,0.09,-1176.05,-12.03,-2412.76,3
0,1,0,1,1,1,0.08,-0.83,-0.27,-1192.89,-270.81,-1785.55,3
0,1,0,1,1,1,-0.02,-0.54,-0.44,3360.78,1719.22,1410.78,3
1,1,0,1,1,1,0.08,-0.99,0.75,5630.57,452.79,96.23,3
1,1,1,1,1,0,0.05,-0.99,0.98,713.98,687.17,982.22,3
1,1,0,1,1,0,-0.01,-0.89,0.86,-3811.33,-145.37,-482,3
1,1,0,1,1,1,-0.02,-0.72,0.23,-3779.2,-273.91,-993.21,3
0,1,0,1,1,1,0.12,-1.09,0.12,-2417.22,-920.7,-91.07,3
0,1,0,1,0,1,0.06,-1.09,-0.23,-4197.45,-649.71,-803.68,3
0,1,0,1,0,1,0.13,-0.59,-0.72,-2688.73,-562.94,-1196.15,3
0,1,0,1,0,1,0.26,-0.59,-0.67,802.13,166.34,1033.25,3
0,1,0,1,1,1,-0.14,-1.03,-0.45,3507.87,-725.15,-391.1,3
0,1,0,1,1,1,0.26,-1.13,-0.12,1939.86,-575.82,-4266.36,3
0,1,0,1,0,1,0.86,-0.7,-0.03,-302.26,554.86,-994.93,3
0,1,0,1,0,1,0.55,-0.88,0.15,-3580.73,-61.52,3594.99,3
0,1,0,1,0,1,-0.03,-0.74,-0.7,-3178.46,-2809.7,-1688.64,3
0,1,0,1,0,1,0.24,-0.61,-0.98,1650.66,432.34,-703.67,3
0,1,0,1,0,1,0.29,-0.7,-0.19,4476.34,2993.91,2275.46,3
0,1,0,1,1,1,0.09,-1.1,0.44,3658.91,2291.44,3186.36,3
1,1,0,1,1,0,-0.17,-1.22,0.52,-999.4,1261.11,2078.02,3
1,1,0,1,1,1,-0.17,-1.03,0.23,-3361.29,-161.01,-853.86,3
0,1,0,1,1,1,-0.16,-0.93,-0.2,-368.93,-491.11,-1097.18,3
0,1,0,1,1,1,-0.2,-1.11,-0.05,1749.64,-776.36,-3178.8,3
0,1,0,1,1,1,0.57,-0.93,0.13,40.55,-1426.07,-3409.06,3
0,1,0,1,0,1,0.74,-0.65,0.03,-1099.24,-122.86,984.11,3
0,1,0,1,0,1,0.28,-0.82,-0.11,-1835.9,431.48,3968.22,3
0,1,0,1,1,1,-0.2,-1,-0.36,341.61,-677.04,1342.9,3
0,1,0,1,1,1,-0.24,-0.84,-0.33,3927.15,1945.53,986.86,3
1,1,1,1,1,1,-0.01,-0.95,1.06,4240.75,710.72,-685.46,3
1,1,1,1,1,0,-0.01,-0.98,0.78,-3255.1,-279.41,498.84,3
1,1,0,1,1,1,-0.18,-0.75,0.1,-4778.26,195.72,96.4,3
1,1,0,1,1,1,-0.16,-1.04,-0.23,30.24,-1291.87,-2518.61,3
0,1,0,1,1,1,0.13,-0.89,-0.06,1287.23,-1548.76,-3693.97,3
0,1,0,1,0,1,0.69,-0.77,0.02,-714.67,1488.79,1676.27,3
0,1,0,1,1,1,0.09,-0.87,0.1,-1285.68,1396.34,4287.32,3
0,1,0,1,1,1,-0.28,-1,-0.14,1274,-987.03,141.94,3
1,1,0,1,1,1,-0.29,-0.77,0.08,5185.17,-46.4,-1079.65,3
1,1,0,1,1,0,0.21,-0.95,0.9,2153.8,-97.43,-1198.9,3
1,1,1,1,1,0,0.22,-0.87,1,-5601.7,-254.66,1417.14,3
1,1,0,1,1,1,-0.18,-0.82,-0.07,-3188.43,-1243.07,-1228.29,3
0,1,0,1,1,1,-0.03,-1.07,-0.21,-1235.68,-499.01,-17.36,3
0,1,0,1,0,1,0.12,-0.91,-0.22,-4574.63,497.64,1568.7,3
0,1,0,1,1,1,-0.11,-0.59,-0.77,-2241.44,244.18,-1425.04,3
0,1,0,0,1,1,-0.1,-0.62,-0.85,1380.19,507.95,297.45,3
0,1,0,1,1,1,0.06,-0.91,-0.41,2151.56,537.5,405.02,3
0,1,0,1,1,1,0.07,-0.83,-0.15,1337.4,-162.56,3122.96,3
0,1,0,1,1,1,-0.37,-0.82,0,800.76,-894.07,4207.42,3
1,1,0,1,1,1,-0.97,-1.07,-0.13,164.79,-126.99,-423.41,3
1,1,0,1,1,1,-0.46,-0.92,0.11,-1214.37,-761.58,-3779.37,3
0,1,0,1,1,1,-0.07,-0.79,-0.14,-3152,-283.36,-2740.96,3
0,1,0,1,1,1,0.13,-0.66,-0.57,-1831.95,111.35,-517.57,3
0,1,0,1,1,1,0.09,-0.78,-0.56,1136.7,128.36,1250.63,3
0,1,0,1,1,1,-0.21,-1,-0.22,1171.07,681.85,4122.19,3
0,1,0,0,1,1,-0.64,-1.16,-0.27,-710.37,-506.57,246.41,3
0,1,0,0,1,1,-0.43,-0.81,-0.58,580.46,-262.57,-1316.44,3
0,1,0,1,1,1,-0.05,-0.84,0,3244.96,152.42,-74.23,3
1,1,0,1,1,1,-0.31,-0.98,0.14,110.66,120.8,1890.89,3
0,1,0,1,1,1,-0.45,-1.07,-0.07,365.5,241.26,-761.41,3
0,1,0,1,1,1,-0.36,-0.96,0.1,-1116.94,1532.09,-1254.75,3
0,1,0,1,1,1,-0.3,-1.16,-0.04,106.02,-1082.91,-2034.54,3
0,1,0,1,1,1,-0.06,-0.88,-0.07,315.66,-868.81,-1531.06,3
,,,,,,,,,,,,3
0,1,0,1,1,1,0.18,-0.76,0,482.35,-814.5,-1387.24,3
0,1,0,1,0,1,0.26,-0.91,0.17,502.79,-824.99,-1229.15,3
0,1,0,1,0,1,0.2,-1.04,0.16,-421,-2321,-2898.19,3
0,1,0,1,0,1,0.56,-0.74,-0.14,-2008.25,-840.45,-2514.14,3
0,1,1,1,0,1,1.04,-0.55,-0.02,-795.6,1626.95,1861.16,3
0,1,0,1,0,1,0.42,-0.84,-0.12,181.12,480.97,3078.62,3
0,1,0,1,1,1,0.12,-0.93,-0.25,2263.77,284.22,798.87,3
1,1,0,1,0,1,0.21,-0.68,0.39,5630.57,1021.4,-520.84,3
1,1,1,1,1,0,0.28,-0.78,0.93,2136.79,853,401.93,3
1,1,1,1,1,0,0.22,-0.77,0.92,-3213.86,805.57,955.93,3
1,1,0,1,1,0,-0.08,-0.83,0.44,-3701.87,631.16,172.87,3
1,1,0,1,1,1,0.18,-0.97,0.44,-1858.07,-1264.2,-782.72,3
0,1,0,1,1,1,0.05,-0.96,0.15,-5080,-828.42,214.8,3
0,1,0,1,0,1,0.09,-0.75,-0.37,-5122.96,-600.74,-722.4,3
0,1,0,1,0,1,0.14,-0.58,-0.93,-846.29,-131.45,44.16,3
0,1,0,1,0,1,0.1,-0.78,-0.7,2243.84,-239.71,448.67,3
0,1,0,1,0,1,0.04,-1.03,-0.34,2486.47,-329.93,35.4,3
0,1,0,1,1,1,0.1,-1.16,-0.18,1297.71,-186.44,-1134.81,3
0,1,0,1,1,1,0.16,-1.17,-0.13,496.09,-549.02,-2246.07,3
0,1,0,1,0,1,0.59,-0.77,-0.17,452.27,-298.48,-2291.44,3
0,1,1,1,0,1,0.75,-0.73,-0.12,-760.72,1424.52,2832.72,3
0,1,0,1,1,1,0.11,-0.98,-0.15,-596.44,369.96,2853.34,3
0,1,0,1,1,1,0.09,-1.1,-0.15,-630.98,-323.05,1266.95,3
0,1,0,1,1,1,-0.02,-0.89,-0.17,-633.39,241.77,3831.61,3
0,1,0,1,1,1,-0.53,-0.99,-0.25,-392.13,-1459.41,1659.6,3
1,1,0,0,1,1,-0.76,-0.97,-0.42,655.21,430.79,-599.02,3
0,1,0,1,1,1,-0.26,-0.98,-0.03,1323.14,709,-1969.93,3
0,1,0,1,1,1,-0.15,-0.93,-0.13,396.43,246.41,-1241.35,3
0,1,0,1,1,1,-0.02,-0.92,-0.1,2155.69,-173.21,-627.38,3
1,1,0,1,1,1,0.01,-0.81,0.26,5105.26,669.65,-514.48,3
1,1,0,1,1,0,0.03,-0.99,0.9,1783.15,481.14,-234.73,3
1,1,0,1,1,0,-0.02,-0.9,0.83,-3499.28,-905.23,-491.28,3
1,1,0,1,1,1,-0.09,-0.76,0.17,-4850.26,0.17,-500.9,3
0,1,0,1,1,1,-0.02,-0.98,-0.07,-746.8,-1394.45,-2165.83,3
0,1,0,1,1,1,0.22,-0.94,-0.04,350.89,-1371.77,-2869.67,3
0,1,0,1,0,1,0.72,-0.67,-0.01,-521.87,147.61,22.34,3
0,1,0,1,0,1,0.41,-0.9,0.18,-2872.76,-815.36,1972.17,3
0,1,0,1,0,1,0.09,-0.95,-0.52,-3819.75,-1638.98,736.32,3
0,1,0,1,0,1,0.09,-0.67,-0.84,-1083.6,-418.08,395.74,3
0,1,0,1,0,1,0.17,-0.78,-0.59,2530.64,528.23,161.18,3
0,1,0,1,0,1,0.03,-0.85,-0.33,3215.23,919.33,1460.95,3
0,1,0,1,0,1,0.12,-1.2,0.06,1018.13,2052.93,1854.97,3
0,1,0,1,1,1,-0.09,-1.26,0.17,-2536.99,-382.68,-1547.22,3
0,1,0,1,1,1,-0.05,-0.88,-0.45,-1112.47,-2849.56,-4097.1,3
0,1,0,1,0,1,0.29,-0.68,-0.69,-200.02,816.57,-409.66,3
0,1,0,1,0,1,0.41,-0.88,-0.24,2443.17,1930.24,2183.53,3
0,1,0,1,1,1,-0.03,-0.99,-0.01,2225.63,600.91,1184.3,3
0,1,0,1,1,1,0.04,-0.93,0.21,1252.34,965.03,1543.78,3
1,1,0,1,1,1,-0.13,-0.99,0.33,69.59,1282.42,1873.19,3
1,1,0,1,1,1,-0.28,-1,0.29,-1973.89,1161.44,1295.99,3
1,1,0,1,1,1,-0.39,-1.14,0.29,-2414.47,-803.16,-235.24,3
0,1,0,1,1,1,-0.43,-0.87,-0.37,-3874.4,-287.83,-2052.59,3
0,1,0,1,1,1,-0.12,-0.62,-0.68,-1054.73,-174.93,-1178.11,3
0,1,0,1,1,1,-0.06,-0.88,-0.43,1458.72,181.46,1101.99,3
0,1,0,1,1,1,-0.16,-1.19,-0.18,-1011.95,316.18,-169.26,3
0,1,0,1,1,1,-0.15,-0.93,-0.53,-569.12,-800.07,-2116.85,3
0,1,0,1,1,1,-0.05,-0.95,-0.55,468.25,-154.82,-1672.31,3
0,1,0,1,1,1,0.21,-0.88,-0.58,1670.25,837.53,-1957.39,3
0,1,0,1,0,1,0.67,-0.67,0.08,3000.27,1316.78,-1160.24,3
1,1,0,1,0,1,0.52,-0.83,0.43,2550.57,62.89,-656.59,3
1,1,0,1,0,1,0.44,-0.76,0.41,2357.6,879.8,-418.25,3
1,1,0,1,0,1,0.41,-0.7,0.63,1566.46,1938.83,479.6,3
1,1,0,1,1,0,0.37,-0.88,0.76,-1433.46,-118.22,114.79,3
1,1,0,1,0,1,0.33,-0.76,0.62,-1434.32,-1711.66,-413.44,3
1,1,0,1,0,1,0.54,-0.88,0.42,-3176.23,-1848.27,-195.89,3
0,1,0,1,0,1,0.57,-0.7,-0.11,-4143.15,-47.26,2216.18,3
0,1,0,1,0,1,0.26,-0.87,-0.35,-2368.08,1014.35,3251.32,3
0,1,0,1,1,1,0,-0.87,-0.44,174.93,136.27,2167.55,3
0,1,0,1,1,1,-0.23,-1.09,-0.37,1347.89,333.88,1141.68,3
0,1,0,1,1,1,-0.18,-1.16,-0.11,966.41,461.04,629.61,3
0,1,0,1,1,1,-0.24,-1.01,-0.31,845.61,479.08,-179.23,3
1,1,0,1,1,1,-0.25,-0.87,-0.02,3973.2,701.61,-1591.55,3
1,1,0,1,1,0,-0.03,-0.7,0.58,3243.93,963.32,-1467.14,3
1,1,0,1,1,0,0.07,-0.96,0.78,-222.01,-173.38,-89.87,3
1,1,0,1,1,1,0.1,-0.83,0.53,-1826.97,-1309.57,-170.63,3
1,1,0,1,1,1,0.2,-0.88,0.29,-810.21,-1588.11,-1169.35,3
0,1,0,1,0,1,0.23,-0.94,0.27,-1025.35,-1265.75,-1228.46,3
0,1,0,1,0,1,0.26,-0.92,0.21,-1853.94,-1540.86,-2155.35,3
0,1,0,1,0,1,0.63,-0.65,-0.07,-624.11,-1387.24,-1169.35,3
0,1,0,1,0,1,0.73,-0.61,-0.15,1045.45,-1674.37,919.15,3
0,1,0,1,0,1,0.6,-0.81,0.01,-99.67,-1317.3,2926.55,3
0,1,0,1,0,1,0.04,-1.05,-0.23,-1199.42,-2020.63,2658.14,3
0,1,0,1,1,1,-0.07,-1.1,-0.4,-1044.08,-474.96,1406.48,3
0,1,0,1,1,1,-0.21,-1,-0.57,1272.79,464.99,-84.89,3
0,1,0,1,1,1,-0.01,-0.84,-0.15,3572.65,2139.71,-714.15,3
1,1,0,1,1,1,0.11,-1.03,0.39,2216.35,1538.45,-231.12,3
1,1,0,1,1,1,0.2,-1.09,0.57,-1431.57,273.56,-538.54,3
0,1,0,1,1,1,0.05,-0.94,0.08,-4116.17,-308.45,-534.07,3
0,1,0,1,1,1,0.04,-1,-0.29,-547.3,-939.26,-2436.13,3
0,1,0,1,1,1,0.31,-0.93,-0.19,133.17,-324.94,-2566.89,3
0,1,1,1,0,1,0.9,-0.74,-0.1,-118.57,-40.9,-1731.08,3
0,1,1,1,0,1,0.87,-0.66,-0.05,-1410.43,483.03,3031.88,3
0,1,0,1,0,1,0.19,-0.95,-0.28,-376.49,-807.8,2347.29,3
0,1,0,1,0,1,0.09,-1.07,-0.34,410.86,-298.48,804.19,3
0,1,0,1,0,1,0.12,-1.02,-0.23,1517.14,994.42,-162.04,3
0,1,0,1,0,1,0.32,-0.94,0.13,2569.81,1044.25,-1670.94,3
0,1,0,1,0,1,0.47,-0.92,0.41,105.16,1015.38,259.47,3
0,1,0,1,0,1,0.33,-0.97,0.33,-3067.45,-798.52,1405.79,3
0,1,0,1,0,1,0.09,-1,-0.2,-1831.78,-1116.77,-373.57,3
0,1,0,1,0,1,0.14,-1.09,-0.24,-246.24,-421,-1356.82,3
0,1,0,1,0,1,0.46,-1,-0.09,698.69,124.24,-2416.88,3
0,1,0,1,0,1,0.78,-0.63,-0.06,648.51,356.56,-852.48,3
0,1,0,1,0,1,0.5,-0.72,0.02,18.21,945.79,4218.24,3
0,1,0,1,1,1,-0.05,-0.94,0.08,1518.69,136.44,3157.67,3
1,1,0,1,1,1,-0.19,-1.15,0.34,1177.94,568.95,1816.83,3
1,1,0,1,1,0,-0.3,-1.26,0.55,-2824.48,886.5,690.27,3
1,1,0,1,1,1,-0.3,-0.88,0.03,-3807.72,-56.53,-1012.46,3
1,1,0,1,1,1,-0.21,-0.83,-0.46,-3041.16,-406.57,-1786.24,3
0,1,0,1,1,1,-0.04,-0.64,-0.79,-592.15,116.68,-1579.18,3
0,1,0,1,1,1,0.02,-0.67,-0.67,3548.08,1181.03,594.9,3
0,1,0,1,1,1,0.12,-1.15,0.23,3446.18,677.38,778.76,3
0,1,0,1,1,1,-0.09,-1.4,0.27,-489.22,282.33,269.1,3
0,1,0,1,1,1,-0.17,-0.85,-0.26,1906.01,-365.67,-2040.73,3
1,1,0,1,1,1,0.15,-0.76,0.38,3167.12,619.13,-1629.87,3
1,1,0,1,1,0,0.38,-0.93,0.8,-975,438.87,753.16,3
1,1,0,1,1,1,0.12,-1.08,0.45,-4072.87,-777.9,40.9,3
0,1,0,1,1,1,0.1,-0.92,-0.06,-1791.57,-2584.08,-3134.3,3
0,1,0,1,0,1,0.23,-0.89,-0.28,-65.99,-676.86,-1942.96,3
0,1,0,1,0,1,0.76,-0.74,-0.09,362.4,226.14,-1330.53,3
,,,,,,,,,,,,3
0,1,1,1,0,1,0.81,-0.67,-0.05,-1606.16,906.44,3176.23,3
0,1,0,1,0,1,0.23,-1.1,-0.2,-1669.22,357.76,3093.57,3
0,1,0,1,0,1,0.16,-1.25,-0.21,-2234.22,-2371.86,-389.04,3
0,1,0,1,1,1,-0.07,-0.75,-0.82,-1793.97,-1720.6,-1399.61,3
0,1,0,1,0,1,0.14,-0.72,-0.67,-312.4,489.05,-305.7,3
0,1,0,1,0,1,0.16,-0.79,-0.6,1782.8,1074.49,-755.22,3
0,1,0,1,0,1,0.46,-0.86,-0.23,2195.04,880.49,-2298.14,3
0,1,0,1,0,1,0.74,-0.89,-0.12,908.67,1277.95,-1034.8,3
0,1,0,1,0,1,0.66,-0.91,-0.01,-155,623.77,523.07,3
0,1,1,1,0,1,1.07,-0.82,0.25,-1280.87,-1344.96,1357.34,3
0,1,0,1,0,1,0.14,-0.84,-0.43,-2370.48,-2139.71,2165.83,3
0,1,0,1,0,1,0.02,-0.91,-0.69,-634.59,-1305.79,-312.57,3
0,1,0,1,1,1,0.06,-0.79,-0.59,886.16,2173.9,2898.71,3
0,1,0,1,1,1,-0.08,-0.91,-0.22,2178.89,791.65,2918.99,3
0,1,0,1,1,1,-0.21,-1.12,-0.16,377.52,-83.34,71.48,3
0,1,0,1,1,1,-0.24,-1,-0.45,942.87,584.24,-520.15,3
0,1,0,1,1,1,-0.01,-0.88,0.18,3165.06,2150.36,-1062.98,3
1,1,0,1,1,1,0.06,-0.99,0.47,797.32,622.74,671.02,3
1,1,0,1,1,0,0.02,-1.17,0.59,-923.96,-1866.66,245.38,3
1,1,0,1,1,1,-0.15,-1,0.1,-2542.32,-1865.8,-97.43,3
0,1,0,1,1,1,-0.14,-0.93,-0.15,-1910.82,-481.83,15.64,3
0,1,0,1,1,1,-0.01,-0.92,-0.19,-633.05,351.58,111.18,3
0,1,0,1,1,1,0,-1,-0.17,-688.03,434.75,1020.71,3
0,1,0,1,1,1,-0.37,-0.8,-0.57,1101.3,957.99,1212.48,3
0,1,0,1,1,1,-0.14,-1.07,0.15,3420.06,874.65,-283.7,3
1,1,0,1,1,1,-0.1,-1.03,0.42,1893.81,145.89,-919.84,3
1,1,0,1,1,1,-0.18,-1.06,0.21,-39.01,501.93,-397.63,3
1,1,0,1,1,1,-0.07,-0.88,0.27,1375.89,376.15,-2950.95,3
1,1,0,1,1,0,0.43,-0.65,0.52,32.99,-248.48,-1109.72,3
1,1,0,1,1,1,0.31,-0.74,0.36,645.42,-1941.24,247.1,3
1,1,0,1,0,1,0.15,-0.87,0.22,786.32,-1417.31,-4.81,3
1,1,0,1,0,1,0.18,-1.03,0.32,-421.17,389.9,-1612.51,3
1,1,0,1,0,1,0.47,-0.8,0.45,-915.37,-300.2,-2310,3
1,1,0,1,0,1,0.82,-0.65,0.55,-1005.07,-975.86,139.53,3
0,1,0,1,0,1,0.46,-0.77,0.15,-1173.82,-1756.86,1214.37,3
0,1,0,1,0,1,0.49,-0.89,0.03,-1377.79,-1925.94,0.52,3
0,1,0,1,0,1,0.43,-0.95,-0.2,-1110.24,-1083.43,-181.63,3
0,1,0,1,0,1,0.47,-0.87,-0.21,-1489.82,-105.16,-1226.4,3
0,1,0,1,0,1,0.69,-0.62,-0.34,-316.35,578.75,-1391.19,3
0,1,1,1,0,1,1.02,-0.61,-0.14,1127.76,462.93,1776.79,3
0,1,0,1,0,1,0.44,-0.95,-0.13,1526.42,-0.17,1382.25,3
0,1,0,1,0,1,0.4,-0.96,-0.09,534.93,871.55,307.59,3
0,1,0,1,0,1,0.54,-0.91,0.17,895.78,2458.46,-1529.17,3
1,1,0,1,0,1,0.79,-0.72,0.49,-306.73,703.33,-282.5,3
0,1,0,1,0,1,0.53,-0.77,0.3,-1892.26,-1747.58,1931.44,3
0,1,0,1,0,1,0.35,-1.02,-0.13,-1503.23,-737.69,750.58,3
0,1,0,1,0,1,0.44,-0.91,-0.08,-1432.26,-883.76,1086.01,3
0,1,0,1,0,1,0.26,-1.02,-0.17,-2825.68,-681.85,2164.11,3
0,1,0,1,1,1,-0.06,-0.85,-0.73,-1737.27,-838.91,-107.23,3
0,1,0,1,0,1,0.02,-0.78,-0.79,261.54,1008.34,-636.48,3
0,1,0,1,0,1,0.14,-0.79,-0.44,2016.67,958.68,-129.91,3
0,1,0,1,0,1,0.33,-0.93,-0.02,1924.22,1019.51,484.41,3
0,1,0,1,1,1,0.09,-1,0.04,960.05,1028.1,3109.72,3
1,1,0,1,1,1,-0.3,-1.12,0.09,1716.82,612.43,2180.95,3
1,1,0,1,1,1,-0.24,-1.25,0.32,-32.99,-95.71,-1391.36,3
0,1,0,1,1,1,-0.1,-0.91,-0.05,-1065.39,-334.91,-2606.24,3
0,1,0,1,1,1,0.12,-0.87,-0.08,533.21,571.01,-2258.28,3
0,1,0,1,0,1,0.44,-0.75,0.19,1836.24,972.77,-1978.01,3
0,1,0,1,0,1,0.64,-0.8,0.51,247.1,447.63,182.49,3
1,1,0,1,0,1,0.37,-0.87,0.4,-1097,-998.03,1164.54,3
0,1,0,1,0,1,0.25,-0.96,0.06,-1781.77,-1221.41,493.69,3
0,1,0,1,0,1,0.38,-1.1,0.08,-2097.09,-1347.71,-538.36,3
0,1,0,1,0,1,0.28,-0.87,-0.22,-3031.71,-1542.4,-2195.38,3
0,1,0,1,0,1,0.68,-0.67,-0.51,-957.13,-406.91,-994.07,3
0,1,0,1,0,1,0.6,-0.72,-0.46,423.58,-732.71,2107.23,3
0,1,0,1,0,1,0.19,-0.84,-0.52,532.86,-580.64,2438.19,3
0,1,0,1,1,1,0.06,-0.92,-0.39,991.67,297.11,2125.96,3
0,1,0,1,1,1,-0.05,-1.15,-0.22,1286.2,591.12,1067.79,3
0,1,0,1,1,1,0.01,-1.19,-0.07,-6.19,71.14,169.77,3
0,1,0,1,1,1,-0.09,-0.93,-0.33,-233.7,-120.97,-61.69,3
0,1,0,1,1,1,-0.16,-0.8,-0.36,2201.05,1650.32,-29.73,3
0,1,0,1,1,1,0.07,-1.12,0.29,1890.03,1114.02,-720.17,3
0,1,0,1,1,1,0.12,-1.18,0.36,-917.09,622.56,-287.65,3
0,1,0,1,1,1,0.06,-1.06,0.12,-3539.49,16.15,-80.76,3
0,1,0,1,1,1,0.1,-0.95,-0.19,-2451.42,-1185.84,-1734.69,3
0,1,0,1,0,1,0.24,-0.83,-0.6,-777.39,-1095.8,-1353.73,3
0,1,0,1,0,1,0.22,-0.88,-0.53,454.34,-260.68,-626.17,3
0,1,0,1,0,1,0.23,-0.8,-0.47,2025.09,234.73,-463.44,3
0,1,0,1,0,1,0.34,-0.83,-0.09,2896.13,1176.74,247.27,3
1,1,0,1,0,1,0.38,-0.95,0.3,1895.7,1499.62,1033.77,3
1,1,0,1,1,1,0.17,-1.08,0.31,-1123.12,625.31,1465.59,3
0,1,0,1,1,1,-0.01,-1.11,0.06,-3088.76,261.02,1361.98,3
0,1,0,1,1,1,-0.08,-1.01,-0.14,-2146.58,-884.96,18.73,3
0,1,0,1,1,1,-0.21,-0.81,-0.56,-1122.44,-337.83,-10.65,3
0,1,0,1,1,1,-0.1,-0.79,-0.45,1574.54,935.48,504.51,3
0,1,0,1,1,1,0.01,-1.14,0.17,857.81,259.99,1073.98,3
0,1,0,1,1,1,-0.29,-0.87,-0.19,1019.33,-683.74,967.44,3
0,1,0,1,1,1,-0.38,-1.19,-0.02,585.96,78.36,-73.03,3
0,1,0,1,1,1,-0.34,-1.16,0.09,-1460.61,-34.88,-2311.54,3
0,1,0,1,1,1,0.02,-0.76,-0.13,-1541.72,195.55,-2456.57,3
0,1,0,1,1,1,0.36,-0.86,-0.14,24.92,24.74,-364.12,3
0,1,0,1,0,1,0.06,-1.14,-0.18,44.85,-344.7,-269.1,3
0,1,0,1,0,1,0.14,-1,-0.2,-548.5,94.51,-1406.83,3
0,1,0,1,0,1,0.25,-0.7,-0.35,1544.12,1177.77,-475.64,3
0,1,0,1,0,1,0.38,-0.73,0.14,3567.67,1421.09,-55.33,3
1,1,0,1,0,1,0.33,-1.05,0.56,1170.38,1182.92,1433.46,3
1,1,0,1,1,0,0.11,-1.02,0.56,-28.7,342.64,1074.84,3
1,1,0,1,1,0,0.08,-1.06,0.63,-1388.78,-294.87,858.5,3
1,1,0,1,1,1,0,-0.91,0.24,-4471.53,-1079.82,-98.46,3
0,1,0,1,1,1,-0.02,-0.79,-0.23,-1765.45,-752.47,-465.68,3
0,1,0,1,1,1,0.08,-1.23,-0.09,-2419.29,-354.5,-680.64,3
0,1,0,1,0,1,0.22,-0.78,-0.54,-2716.39,-654.7,-1177.77,3
0,1,0,1,0,1,0.26,-0.71,-0.69,-513.79,-878.08,-196.92,3
0,1,0,1,0,1,0.2,-0.8,-0.53,1285.68,-1097.52,1469.37,3
0,1,0,1,1,1,-0.12,-0.97,-0.47,1489.48,-422.03,1776.45,3
0,1,0,1,1,1,-0.28,-1.13,-0.28,1372.97,882.72,1105.94,3
0,1,0,1,1,1,-0.23,-1.05,-0.22,953.69,1146.15,52.93,3
0,1,0,1,1,1,-0.16,-0.99,-0.21,1250.63,504.17,-1571.44,3
0,1,0,1,1,1,0.06,-1,0.03,845.44,625.48,-1693.28,3
0,1,0,1,1,1,0.27,-0.99,0.28,-209.47,-672.74,-170.12,3
0,1,0,1,1,1,0,-1.13,-0.03,-104.99,-1605.98,-846.81,3
0,1,0,1,1,1,0.07,-1.12,-0.16,-1119.51,-300.37,-2619.48,3
0,1,0,1,0,1,0.5,-0.72,-0.18,-532.18,560.53,-1162.3,3
0,1,0,1,0,1,0.59,-0.8,-0.06,1018.13,-1047.17,1364.21,3
0,1,0,1,0,1,0.16,-0.92,-0.15,1327.09,18.56,2296.08,3
1,1,0,1,1,1,-0.08,-1,0.03,813.99,794.92,1421.95,3
1,1,0,1,1,1,0.01,-1.12,0.21,698.52,1419.88,1153.19,3
1,1,0,1,1,1,-0.04,-1.27,0.38,-1969.59,266,277.17,3
0,1,0,1,1,1,-0.17,-1.06,-0.04,-2860.73,-593.18,-569.29,3
,,,,,,,,,,,,3
0,1,0,1,1,1,-0.05,-0.82,-0.41,-1663.21,-1008.68,-1452.02,3
0,1,0,1,1,1,-0.01,-0.85,-0.45,-194.52,47.6,20.1,3
0,1,0,1,1,1,-0.06,-0.9,-0.44,1862.02,1092.54,264.46,3
0,1,0,1,1,1,0.19,-1,0.01,2673.95,750.75,-420.66,3
0,1,0,1,0,1,0.23,-1.04,0.21,1462.33,816.22,-433.03,3
0,1,0,1,1,1,0.21,-1.08,0.39,-2170.29,719.14,1030.68,3
0,1,0,1,1,1,0.02,-1.02,0.07,-3802.74,-264.11,898.36,3
0,1,0,1,1,1,-0.03,-0.88,-0.47,-2310.51,-991.15,-726.01,3
0,1,0,1,1,1,-0.07,-0.92,-0.6,-1440.85,-384.57,-1154.57,3
0,1,0,1,1,1,0,-0.82,-0.6,455.88,497.12,-1500.82,3
0,1,0,1,0,1,0.21,-0.8,-0.4,2367.91,240.23,-1295.82,3
0,1,0,1,0,1,0.36,-0.89,-0.04,2108.09,716.21,218.58,3
0,1,0,1,0,1,0.33,-1.1,0.2,598.85,290.58,1396,3
0,1,0,1,0,1,0.22,-1.12,0.02,-823.1,-1180,-812.61,3
0,1,0,1,0,1,0.18,-0.87,-0.31,428.9,-154.14,-677.21,3
1,1,0,1,0,1,0.3,-0.8,0.02,2527.71,1420.4,350.55,3
1,1,0,1,0,1,0.24,-0.86,0.4,2771.21,1601.34,952.83,3
1,1,0,1,1,0,0.12,-0.95,0.57,465.85,1450.99,1743.62,3
1,1,0,1,1,0,-0.13,-0.92,0.63,-1059.37,114.27,534.41,3
1,1,0,1,1,0,-0.11,-1.01,0.53,-2466.88,-718.45,38.49,3
1,1,0,1,1,1,-0.16,-0.82,0.06,-1818.37,-1097.35,-1257.84,3
1,1,0,1,1,1,0.13,-0.82,0.01,1995.71,607.1,-1139.28,3
1,1,0,1,1,1,0.12,-1.18,0.51,-984.45,1210.42,1920.44,3
1,1,0,1,1,1,-0.1,-1.11,0.27,-2658.83,-37.29,1015.04,3
0,1,0,1,1,1,-0.1,-1.02,0.03,-2795.44,-461.55,-183.35,3
0,1,0,1,1,1,-0.19,-0.92,-0.37,-1318.67,-1476.08,-2711.41,3
0,1,0,1,1,1,0.03,-0.82,-0.43,788.21,300.71,-733.74,3
0,1,0,1,0,1,0.15,-1.02,-0.13,1645.68,357.94,46.22,3
0,1,0,1,0,1,0.27,-1.21,0.09,-643.7,-50.35,1062.98,3
0,1,0,1,1,1,-0.05,-0.96,-0.3,-318.41,-308.62,396.08,3
0,1,0,1,1,1,-0.05,-0.99,-0.16,2245.73,339.38,-1311.63,3
0,1,0,1,1,1,0.24,-1,0.23,1182.92,43.3,-1893.12,3
0,1,0,1,0,1,0.44,-1.17,0.51,-3449.62,-100.87,2105.86,3
0,1,0,1,1,1,-0.01,-0.82,-0.18,-4059.81,-2066.51,255.01,3
0,1,0,1,1,1,-0.06,-0.71,-0.75,-1585.19,-1115.56,-819.32,3
0,1,0,1,1,1,0.08,-0.81,-0.67,372.71,861.42,969.85,3
0,1,0,1,1,1,-0.11,-0.88,-0.47,1600.66,1238.08,2222.53,3
0,1,0,1,1,1,-0.18,-1.09,-0.25,1259.91,524.62,1394.11,3
0,1,0,1,1,1,-0.31,-1.03,-0.24,706.59,62.2,113.58,3
0,1,0,1,1,1,-0.24,-1.03,-0.1,1204.57,-80.76,-1386.2,3
0,1,0,1,1,1,-0.16,-1.25,0.05,-445.92,114.1,-2593.87,3
0,1,0,1,1,1,0.21,-0.79,-0.18,-1104.05,-424.78,-3553.75,3
0,1,0,1,0,1,0.58,-0.71,-0.27,31.79,183.01,-1438.62,3
0,1,0,1,0,1,0.53,-0.74,-0.32,1327.09,517.23,936.17,3
0,1,0,1,0,1,0.35,-0.91,-0.07,2448.5,1250.11,388.52,3
0,1,0,1,0,1,0.42,-0.95,0.52,1858.76,1682.97,739.58,3
1,1,0,1,1,1,0.13,-0.98,0.44,-669.82,1063.67,1782.98,3
1,1,0,1,1,1,0.02,-0.93,0.38,-1208.87,144.17,1058.68,3
1,1,0,1,1,1,-0.02,-1.08,0.33,-2272.71,-606.24,427.7,3
0,1,0,1,1,1,-0.03,-1.05,-0.01,-2001.55,-611.05,-571.18,3
0,1,0,1,1,1,0.05,-1.07,-0.08,-2904.55,-718.28,-1357.68,3
0,1,0,1,0,1,0.09,-0.72,-0.53,-1676.78,-971.39,-1574.19,3
0,1,0,1,0,1,0.33,-0.73,-0.47,896.99,225.11,1080.85,3
0,1,0,1,1,1,0.06,-1.16,-0.19,525.82,-258.61,980.33,3
0,1,0,1,1,1,0.02,-1.13,-0.42,-938.23,-71.83,-2593.01,3
0,1,0,1,0,1,0.28,-0.86,-0.4,-131.97,489.39,-2730.83,3
0,1,0,1,0,1,0.53,-0.61,-0.35,1316.27,1044.77,-1002.84,3
0,1,0,1,0,1,0.66,-0.66,-0.03,2757.8,1159.9,138.33,3
0,1,0,1,0,1,0.58,-0.72,0.23,2088.5,1516.97,2046.06,3
1,1,0,1,1,1,0.21,-1.01,0.4,937.02,889.77,2169.61,3
1,1,0,1,1,1,0.08,-0.99,0.36,581.67,753.33,-100.87,3
1,1,0,1,1,1,0.21,-0.8,0.47,823.44,685.11,-155.34,3
1,1,0,1,1,0,0.19,-0.88,0.61,-329.07,53.27,152.25,3
1,1,0,1,1,0,0.2,-0.94,0.59,-2521.36,-1314.21,50.86,3
1,1,0,1,1,1,0.11,-0.88,0.14,-4798.88,-935.31,-283.01,3
0,1,0,1,0,1,0.23,-0.77,-0.36,-2616.73,-621.53,-850.25,3
0,1,0,1,0,1,0.3,-0.77,-0.54,762.61,-84.2,1047.52,3
0,1,0,1,1,1,0.22,-0.96,-0.14,1535.7,703.33,2940.98,3
0,1,0,1,1,1,-0.12,-1.07,0.05,752.99,320.3,3100.27,3
0,1,0,1,1,1,-0.39,-1.02,-0.07,214.8,-493.69,870.87,3
0,1,0,1,1,1,-0.37,-0.91,-0.09,437.67,-115.47,651.78,3
1,1,0,1,1,1,-0.42,-0.95,0.05,1899.14,65.13,151.22,3
1,1,0,1,1,1,-0.37,-1.07,0.45,-221.67,500.73,-30.93,3
1,1,0,1,1,0,-0.38,-0.92,0.14,-3305.1,939.77,-761.06,3
1,1,0,1,1,1,-0.31,-0.95,-0.34,-2638.38,221.33,-1538.8,3
1,1,0,1,1,1,-0.15,-0.82,-0.53,-1220.04,-61.52,-2138.85,3
0,1,0,1,1,1,-0.03,-0.97,-0.42,-206.38,261.88,-992.01,3
0,1,0,1,1,1,0.02,-0.95,-0.4,224.93,-118.91,-957.82,3
0,1,0,1,1,1,0.1,-1.04,-0.4,463.61,-130.08,-1633.31,3
0,1,0,1,1,1,0.17,-0.83,-0.43,709.17,653.67,-1989.87,3
0,1,0,1,0,1,0.39,-0.75,-0.24,1854.8,710.72,-695.25,3
0,1,0,1,0,1,0.39,-0.71,0.06,2984.63,1069.85,1101.99,3
1,1,0,1,1,1,0.23,-1.06,0.37,1317.13,1083.09,1929.9,3
0,1,0,1,1,1,0.13,-1.3,0.49,-1918.55,-375.46,313.09,3
0,1,0,1,1,1,0.14,-1.05,0.2,-4510.54,-447.12,31.1,3
0,1,0,1,1,1,0.15,-0.8,-0.45,-2106.37,-865.54,-877.57,3
0,1,0,1,1,1,0.15,-0.87,-0.45,-245.04,-54.47,289.37,3
0,1,0,1,1,1,0.2,-1.05,-0.24,-699.72,-254.15,183.52,3
0,1,0,1,0,1,0,-0.75,-0.76,1179.31,-77.84,-250.19,3
1,1,0,1,0,1,0.15,-0.86,-0.03,4107.75,517.74,-872.59,3
1,1,0,1,0,1,0.33,-1.02,0.37,2722.06,590.43,30.59,3
1,1,0,1,0,1,0.24,-0.9,0.35,2172.01,117.02,627.38,3
1,1,0,1,1,1,0.14,-0.93,0.54,1383.28,452.96,777.22,3
1,1,0,1,1,0,0.14,-1.01,0.76,-1035.31,2.41,-170.63,3
1,1,0,1,1,1,0.08,-0.83,0.34,-4515.18,-364.29,-68.73,3
1,1,0,1,1,1,0.17,-0.85,0.01,-1541.72,175.79,17.18,3
0,1,0,1,1,1,0.16,-1.14,0.1,-1217.46,-429.08,297.79,3
0,1,0,1,1,1,0,-1.13,-0.23,-2053.45,-99.15,-2135.07,3
0,1,0,1,0,1,0.19,-0.76,-0.31,-319.79,208.61,-3775.25,3
0,1,0,1,0,1,0.87,-0.68,-0.09,827.91,47.43,-597.3,3
0,1,0,1,0,1,0.46,-0.75,-0.17,1276.92,364.12,3864.6,3
0,1,0,1,0,1,0.15,-0.87,-0.11,1079.48,-65.13,3957.22,3
0,1,0,1,1,1,-0.27,-0.95,0.07,624.11,537.16,3213.17,3
1,1,0,1,1,1,-0.65,-1.1,0.08,-520.49,540.77,207.41,3
1,1,0,1,1,1,-0.22,-0.78,0.02,-115.47,-19.93,-191.6,3
1,1,0,1,1,1,-0.45,-1.09,0.03,-589.06,264.8,-569.64,3
0,1,0,1,1,1,-0.31,-0.96,-0.11,-976.37,1017.79,-4412.76,3
0,1,0,1,1,1,0.18,-0.75,-0.11,-604.69,944.93,-3073.81,3
0,1,0,1,0,1,0.58,-0.7,-0.09,268.41,-482.52,1104.39,3
0,1,0,1,0,1,0.19,-0.89,-0.08,411.72,-484.58,3966.85,3
0,1,0,1,1,1,-0.32,-0.88,-0.11,577.03,-560.19,3737.1,3
1,1,0,1,1,1,-0.71,-1.4,0.09,122.69,-18.39,-566.37,3
0,1,0,1,1,1,-0.39,-1.06,0.04,-1194.61,89.35,-4477.72,3
0,1,0,1,1,1,0.18,-0.76,-0.07,-1037.38,89.18,-4296.6,3
0,1,0,1,0,1,0.81,-0.75,-0.05,-298.48,-13.23,-1069.34,3
0,1,0,1,0,1,0.53,-1.07,-0.02,-827.39,-984.97,-410.52,3
0,1,0,1,0,1,0.57,-0.76,-0.27,-1978.01,-1781.94,289.89,3
0,1,0,1,0,1,0.46,-0.61,-0.56,294.53,-1338.95,1419.88,3
0,1,0,1,0,1,0.24,-0.82,-0.45,1428.3,-21.31,3179.83,3
1,0,1,0,1,0,-1.04,0.13,0.38,-101.67,600.77,-283.55,4
1,1,1,0,1,1,-0.9,-0.05,0.07,-270.52,317.82,-1087.44,4
1,1,1,0,1,1,-0.81,-0.3,0.04,-52.86,-230.15,-768.27,4
1,1,1,0,1,1,-0.63,-0.35,0.03,201.72,-436.19,53.62,4
1,1,0,0,1,1,-0.76,-0.3,0.3,350.19,-615.26,593.26,4
1,1,1,0,1,0,-0.87,-0.15,0.51,238.2,-286.2,694.33,4
1,1,1,0,1,0,-0.89,0.01,0.5,8.65,570.5,593.26,4
1,1,1,0,1,0,-0.91,0.15,0.28,-20.59,939.51,356.19,4
1,0,1,0,1,1,-0.93,0.18,0.04,-82.32,596.77,-535.97,4
1,1,1,0,1,1,-0.87,-0.07,-0.09,-73.83,-171.72,-941.45,4
1,1,1,0,1,1,-0.8,-0.26,-0.01,11.19,-475.32,-462.02,4
1,1,1,0,1,1,-0.75,-0.28,0.17,137.13,-540.88,-28.11,4
1,1,1,0,1,1,-0.85,-0.29,0.34,199.34,-435.11,293.33,4
1,1,1,0,1,0,-1.05,-0.19,0.43,-5.68,395.92,364.25,4
1,1,1,0,1,1,-0.68,-0.11,0.1,-160.37,519.16,-31.3,4
1,1,1,0,1,1,-0.8,-0.13,0.22,172.91,-846.38,263.39,4
1,1,1,0,1,0,-0.84,0.02,0.5,65.51,-541.53,509.91,4
1,1,1,0,1,0,-0.78,0.15,0.51,-44.48,318.41,566.5,4
1,0,1,0,1,1,-0.88,0.19,0.35,111.67,884.27,75.08,4
1,0,1,0,1,1,-0.95,0.19,0.19,-105.94,489.48,-811.73,4
1,1,1,0,1,1,-0.9,-0.09,0.12,-73.89,-151.88,-1022.53,4
1,1,1,0,1,1,-0.71,-0.23,0.12,135.4,-546.34,-355.44,4
1,1,1,0,1,0,-0.67,-0.15,0.31,116.8,-373.44,454.94,4
1,1,1,0,1,0,-0.77,-0.08,0.34,-29.94,-341.65,905.02,4
1,1,1,0,1,0,-0.69,-0.01,0.65,-271.77,210.15,588.93,4
1,1,1,0,1,0,-0.79,0.14,0.45,19.73,347.49,573.1,4
1,0,1,0,1,1,-0.76,0.27,0.27,19.19,397.22,101.51,4
1,0,1,0,1,1,-1.01,0.22,0.2,76.43,450.94,-815.62,4
1,1,1,0,1,1,-0.92,-0.01,0.1,189.88,321.71,-918.59,4
1,1,1,0,1,1,-0.87,-0.2,0.09,210.42,-112.32,-714.93,4
1,1,1,0,1,1,-0.77,-0.25,0.17,226.2,-528.07,-476.78,4
1,1,1,0,1,1,-0.67,-0.25,0.42,228.9,-495.7,555.53,4
1,1,1,0,1,0,-0.85,-0.15,0.5,-11.13,-256.04,776.81,4
1,1,1,0,1,0,-0.84,0,0.48,-138.26,17.4,546.83,4
1,1,1,0,1,0,-0.88,0.08,0.42,-128.1,397.16,458.13,4
1,1,1,0,1,0,-0.89,0.1,0.3,-34.43,699.79,-65.08,4
1,1,1,0,1,1,-0.91,0.07,0.12,36.59,420.24,-514.02,4
1,1,1,0,1,1,-1.02,-0.04,0.04,151.02,133.45,-800.16,4
1,1,1,0,1,1,-0.85,-0.23,0.07,103.45,-168.26,-893.73,4
1,1,1,0,1,1,-0.66,-0.38,0.11,-103.56,-130.59,-270.14,4
1,1,1,0,1,1,-0.78,-0.33,0.12,-183.29,-44.86,357.06,4
1,1,1,0,1,1,-0.85,-0.43,0.22,141.23,-114.37,196.64,4
1,1,1,0,1,1,-0.9,-0.36,0.21,90.05,-326.47,256.96,4
1,1,1,0,1,1,-0.89,-0.26,0.27,-28.05,-79.72,196.26,4
1,1,1,0,1,1,-0.78,-0.13,0.29,-147.94,-45.4,155.88,4
1,1,1,0,1,0,-0.86,0.06,0.45,-152.69,225.39,236.96,4
1,1,1,0,1,1,-0.87,-0.02,0.12,-182.31,638.07,795.68,4
1,1,1,0,1,1,-1.17,-0.1,-0.06,63.51,267.55,-663.47,4
1,1,1,0,1,1,-0.92,-0.33,0.08,23.13,-214.47,-1211.92,4
1,1,1,0,1,1,-0.7,-0.37,-0.03,-79.94,-45.08,-235.17,4
1,1,1,0,1,1,-0.74,-0.33,0.06,-76.64,188.91,1018.8,4
1,1,1,0,1,1,-1.01,-0.04,0.01,48.38,71.56,1166.14,4
1,1,1,0,1,1,-1.07,0.1,0.02,-15.51,389.81,268.04,4
1,1,1,0,1,1,-1.06,0.09,-0.11,-4.27,140.42,-652.55,4
1,1,1,0,1,1,-0.95,-0.17,-0.1,83.45,-305.12,-894.54,4
1,1,1,0,1,1,-0.84,-0.28,-0.04,37.29,-210.74,-83.45,4
1,1,1,0,1,1,-0.81,-0.14,0.09,125.13,-423,1058.53,4
1,1,1,0,1,1,-1.04,0.13,0.28,86.37,-343.65,1123.44,4
1,0,1,0,1,1,-1,0.24,0.14,12.59,683.9,86.21,4
1,0,1,0,1,1,-0.82,0.22,-0.02,-38.97,520.61,-824.43,4
1,1,1,0,1,1,-0.87,0.03,-0.09,-87.35,26.27,-799.08,4
1,1,1,0,1,1,-0.91,-0.19,-0.05,-107.07,-253.55,-512.13,4
1,1,1,0,1,1,-0.93,-0.32,0,-117.02,-403.38,75.24,4
1,1,1,0,1,1,-0.77,-0.1,0.02,141.61,-579.1,783.52,4
1,1,1,0,1,1,-0.96,0.13,0.37,415.32,-692.23,1070.63,4
1,0,1,0,1,0,-0.88,0.35,0.34,191.99,644.66,452.94,4
1,0,1,0,1,1,-0.82,0.33,0.18,144.21,739.63,-202.47,4
1,0,1,0,1,1,-0.85,0.23,-0.06,-66.27,467.48,-951.94,4
1,1,1,0,1,1,-0.88,-0.07,-0.1,-26.65,-106.59,-1094.15,4
1,1,1,0,1,1,-0.87,-0.31,0.01,-41.24,-679.15,-767.52,4
1,1,0,0,1,1,-0.67,-0.29,0.05,-17.62,-275.44,245.44,4
1,1,1,0,1,1,-0.8,-0.18,0.25,298.58,-567.1,964.53,4
1,1,1,0,1,1,-0.92,0.09,0.44,212.04,-456.73,1010.31,4
1,0,1,0,1,1,-0.85,0.35,0.35,117.13,568.88,607.42,4
1,0,1,0,1,1,-0.81,0.29,0.25,-109.72,552.67,-556.61,4
1,1,1,0,1,1,-0.59,0.17,0.14,-132.1,-377.27,-519.7,4
1,1,1,0,1,1,-0.9,0.13,0.36,51.94,-801.95,580.83,4
1,0,1,0,1,0,-0.95,0.21,0.47,101.89,629.15,240.42,4
1,0,1,0,1,0,-0.86,0.15,0.26,-37.73,1110.52,-826.43,4
1,1,1,0,1,1,-0.8,0.04,-0.05,-56.54,801.14,-977.83,4
1,1,0,0,1,1,-0.78,-0.25,-0.22,1.62,-199.99,-725.3,4
1,1,0,0,1,1,-0.95,-0.43,-0.1,123.61,-478.19,224.58,4
1,1,0,0,1,1,-0.94,-0.2,0.08,207.82,-644.55,705.09,4
1,1,1,0,1,0,-1.08,-0.16,0.23,-23.73,1138.68,833.24,4
1,1,1,0,1,1,-0.85,0.13,-0.2,-233.34,1125.39,-26.86,4
1,1,0,0,1,1,-0.73,0.03,-0.51,14.22,-23.03,-218.36,4
0,1,0,0,1,1,-0.91,-0.05,-0.35,82.05,-881.73,160.42,4
1,1,1,0,1,1,-0.97,0.27,-0.03,151.83,-779.36,1062.04,4
1,0,1,0,1,1,-1.14,0.25,-0.09,24.7,-32.38,424.24,4
1,0,1,0,1,1,-0.9,0.29,-0.08,-275.6,-108.91,-701.68,4
1,1,1,0,1,1,-0.96,0.1,-0.08,-127.34,-57.24,-1569.09,4
1,1,1,0,1,1,-0.95,-0.2,0.01,95.89,-90.91,-906.16,4
1,1,1,0,1,1,-0.76,-0.17,0.07,-182.53,35.67,627.96,4
1,1,1,0,1,1,-0.88,0.04,-0.04,-138.15,60.48,1273.7,4
1,0,1,0,1,1,-1.05,0.16,-0.01,-74.1,-291.66,190.53,4
1,1,1,0,1,1,-1.08,0.2,0.17,-138.37,-1080.47,-625.42,4
1,1,1,0,1,1,-0.75,0.1,0.39,-174.04,-922.43,-180.2,4
1,1,1,1,1,0,-0.82,0.01,0.61,-95.72,217.01,113.02,4
1,1,1,0,1,0,-0.84,0.04,0.36,-203.07,1583.41,93.99,4
1,1,1,0,1,1,-0.83,0.03,-0.04,-133.34,1185.65,-350.9,4
1,1,1,0,1,1,-0.86,-0.14,-0.35,-68.21,-32.16,-621.8,4
1,1,0,0,1,1,-0.91,-0.34,-0.14,32.16,-864.97,-886.92,4
1,1,0,0,1,1,-0.45,-0.4,-0.04,104.59,-184.2,-127.67,4
1,1,0,0,1,1,-0.7,-0.29,0.2,332.03,-457.86,770.06,4
1,1,1,0,1,1,-0.87,-0.07,0.36,308.52,-594.45,985.5,4
1,1,1,1,1,0,-0.74,0.18,0.41,-87.29,283.87,546.99,4
1,0,1,0,1,0,-0.89,0.12,0.29,68.59,612.66,266.74,4
1,0,1,0,1,1,-0.89,0.2,0.1,-228.63,597.04,-768.17,4
1,1,1,0,1,1,-0.89,-0.12,-0.09,-78.21,-16.92,-1044.42,4
1,1,0,0,1,1,-0.73,-0.09,-0.07,98.48,-240.15,63.89,4
1,1,1,0,1,1,-0.85,0,0.26,244.52,-174.53,1048.91,4
1,0,1,0,1,1,-1.14,-0.03,0.16,-223.28,107.24,-290.31,4
1,1,1,0,1,1,-0.92,-0.17,0.29,-369.76,-103.45,-1188.79,4
1,1,1,0,1,1,-0.72,-0.36,0.13,-312.36,-279.5,-757.95,4
1,1,1,0,1,1,-0.69,-0.36,0.15,179.07,-46.32,508.83,4
1,1,1,0,1,1,-0.82,-0.21,0.28,360.52,21.13,1331.16,4
1,1,1,0,1,1,-0.91,0.23,0.35,345.82,-446.57,1296.94,4
1,0,1,0,1,0,-0.98,0.32,0.33,127.94,267.55,797.14,4
1,0,1,0,1,0,-0.99,0.33,0.09,-54.92,825.35,-443.48,4
1,0,1,0,1,1,-0.77,0.35,-0.01,13.73,951.83,-1095.44,4
1,1,1,0,1,1,-0.65,0.07,-0.08,67.24,-1096.52,-180.2,4
1,1,1,1,1,0,-1.19,0.06,0.22,-12.92,305.22,196.04,4
1,1,1,0,1,1,-0.75,0.12,-0.12,-68.97,941.89,37.84,4
1,1,1,0,1,1,-0.98,0.12,-0.08,119.67,-1050.96,-1.62,4
1,1,1,0,1,1,-1.19,0.09,0.14,-123.51,607.2,-178.69,4
1,1,1,0,1,1,-0.84,0.09,-0.14,-129.51,1548.82,-283.82,4
0,1,0,0,1,1,-0.78,-0.05,-0.6,28.86,-145.83,3.03,4
0,1,0,0,1,1,-0.9,-0.04,-0.45,8.27,-590.93,-139.99,4
1,1,0,0,1,1,-0.93,-0.07,-0.21,-32.21,-121.4,-18.16,4
1,1,0,0,1,1,-0.76,-0.02,-0.19,7.08,-954.37,44.75,4
1,1,1,0,1,1,-0.94,-0.05,0.18,189.45,-1686.81,68.54,4
1,1,1,1,1,0,-0.96,0.03,0.39,131.61,-480.94,142.1,4
1,1,1,0,1,0,-0.79,0.06,0.41,-165.99,1141.17,31.13,4
1,1,1,0,1,1,-0.91,0,0.17,-255.55,150.64,-245.98,4
1,1,1,0,1,1,-1,-0.12,0.22,-505.48,138.42,-846.22,4
1,1,1,0,1,1,-0.71,-0.31,0.09,-415.7,81.94,-1180.03,4
1,1,0,0,1,1,-0.61,-0.51,0.13,132.59,76.27,267.39,4
1,1,0,0,1,1,-0.72,-0.37,0.08,79.56,451.48,1092.74,4
1,1,1,0,1,1,-1.12,-0.17,0.03,-30.11,63.35,459.38,4
1,1,1,0,1,1,-0.94,-0.12,-0.04,-14,-54.92,-205.77,4
1,1,1,0,1,1,-0.84,0.02,0.14,335.82,-489.37,1450.83,4
1,0,1,1,1,1,-1.19,0.38,0.07,300.95,-424.35,1287.97,4
1,0,1,0,1,1,-0.74,0.42,0.09,-181.61,234.15,-601.26,4
1,0,1,0,1,1,-0.84,0.33,0.16,-236.63,317.44,-1174.14,4
1,1,1,0,1,1,-0.88,0.06,0,13.57,-54.92,-214.42,4
1,1,1,0,1,1,-0.79,0.02,-0.01,265.77,-1100.2,815.46,4
1,1,1,1,1,0,-1.03,0.31,0.5,249.5,-338.63,860.7,4
1,1,1,1,1,0,-0.64,0.35,0.32,-72.48,503.05,-468.56,4
1,1,1,0,1,1,-0.87,0.23,0.24,-190.85,1050.09,-921.08,4
1,1,1,0,1,1,-0.94,0.01,-0.02,-80.59,165.39,-421.16,4
1,1,1,0,1,1,-0.88,-0.11,-0.04,-89.78,-569.91,-600.02,4
1,1,1,0,1,1,-0.8,-0.22,0.24,-100.75,-1569.68,-571.8,4
1,1,1,1,1,0,-0.5,-0.28,0.8,9.68,292.63,374.62,4
1,1,1,0,1,1,-0.72,-0.22,0.31,-203.61,1228.89,403.33,4
1,1,1,0,1,1,-0.97,-0.15,0.01,28.81,-435.49,144.8,4
1,1,1,0,1,1,-1.04,-0.1,0.27,-32.81,92.21,-88.97,4
1,1,1,0,1,0,-0.78,-0.03,0.08,203.45,1128.25,517.16,4
1,1,1,0,1,1,-0.95,0.1,-0.11,-235.28,1335.59,668.01,4
1,1,1,0,1,1,-0.85,0.2,-0.49,-76.05,-542.45,-378.79,4
1,1,1,0,1,1,-0.97,0,-0.04,95.35,-780.38,-279.6,4
1,1,1,0,1,1,-1.02,0,0.11,-88.32,179.66,124.53,4
1,0,1,0,1,1,-1.36,0.13,-0.01,-458.51,722.71,-959.4,4
1,1,0,0,1,1,-0.33,-0.21,-0.55,-213.72,615.8,-815.08,4
0,1,0,0,1,1,-0.59,-0.36,-0.44,28.65,-308.36,599.58,4
1,1,1,0,1,1,-1.12,-0.23,-0.27,11.3,-336.95,762.55,4
1,1,1,0,1,1,-0.96,-0.05,-0.24,-64.37,23.78,92.48,4
1,1,1,0,1,1,-0.83,-0.05,-0.17,47.78,-447.7,252.52,4
1,1,1,0,1,1,-0.77,0.17,0.26,220.74,-1771.13,610.93,4
1,1,1,1,1,0,-1.05,0.16,0.46,-38.16,65.4,155.13,4
1,1,1,0,1,1,-0.84,0.12,0.33,-148.04,1101.28,-479.32,4
1,1,1,0,1,1,-0.86,0.04,0.1,-188.96,179.61,-461.7,4
1,1,1,0,1,1,-0.98,-0.06,0.08,-263.6,-135.99,-557.48,4
1,1,1,0,1,1,-0.75,-0.24,0.1,-130.1,-794.49,-736.55,4
1,1,1,1,1,0,-0.52,-0.42,0.53,330.36,-383.27,364.57,4
1,1,1,1,1,0,-0.76,-0.27,0.41,-184.42,863.84,188.37,4
1,1,1,0,1,1,-0.86,-0.31,0.02,-201.45,433.81,-37.84,4
1,1,0,0,1,1,-0.96,-0.28,-0.01,61.29,-125.13,251.5,4
1,1,0,0,1,1,-0.66,-0.06,0.24,251.82,-1132.47,830.92,4
1,1,1,1,1,0,-0.93,0.08,0.65,371.06,-843.73,941.61,4
1,1,1,1,1,0,-0.57,0.21,0.6,-105.24,405.38,-357.44,4
1,1,1,0,1,0,-0.78,0.11,0.42,-331.92,848.54,-950.1,4
1,1,1,0,1,1,-0.92,-0.13,0.25,-162.75,184.96,-381.71,4
1,1,1,0,1,1,-0.88,-0.18,0.27,-240.31,-143.18,-425.27,4
1,1,1,0,1,1,-0.9,-0.36,0.19,113.88,-408.08,-995.83,4
1,1,0,1,1,0,-0.32,-0.46,0.5,102.32,18.49,-208.74,4
1,1,1,0,1,0,-0.56,-0.33,0.49,73.02,82.86,1004.91,4
1,1,1,0,1,1,-0.84,-0.14,0.36,25.03,-263.06,1157.87,4
1,1,1,0,1,1,-0.85,0.15,0.53,228.15,-768.38,543.37,4
1,1,1,1,1,0,-0.73,0.14,0.74,8.38,495.91,-247.17,4
1,1,1,0,1,0,-0.71,0.1,0.36,-225.55,885.89,-595.96,4
1,1,1,0,1,1,-0.84,-0.09,0.21,-147.29,63.73,-287.55,4
1,1,1,0,1,1,-0.8,-0.06,0.27,186.85,-233.98,234.69,4
1,1,1,0,1,1,-0.78,0.23,0.38,534.56,-211.34,1043.12,4
1,0,1,0,1,0,-0.9,0.37,0.49,223.34,651.58,802.76,4
1,0,1,0,1,0,-0.97,0.35,0.11,-47.02,847.35,-419.11,4
1,0,1,0,1,1,-0.88,0.24,-0.01,-233.17,569.53,-1259.32,4
1,1,1,0,1,1,-0.91,-0.06,-0.14,-142.37,153.99,-770.22,4
1,1,0,0,1,1,-0.8,0,-0.17,-1.03,-186.42,647.58,4
1,1,1,0,1,1,-1.09,0.1,-0.08,-8.86,-162.26,597.96,4
1,0,1,0,1,1,-1.19,0.04,0.01,-178.91,27.94,-730.71,4
1,1,1,0,1,1,-0.87,-0.09,-0.08,-248.31,-77.18,-1630.06,4
1,1,0,0,1,1,-0.65,-0.44,-0.18,-35.24,27.73,-270.52,4
1,1,0,0,1,1,-0.74,-0.32,-0.12,-35.08,261.06,1089.33,4
1,1,1,0,1,1,-1.03,-0.08,-0.13,-70.59,20.05,694.33,4
1,1,1,0,1,1,-0.87,0.02,-0.18,30.21,2.05,319.01,4
1,1,1,0,1,1,-0.88,0.36,0.11,110.59,-908.32,1504.98,4
1,0,1,1,1,1,-1.11,0.43,-0.02,189.29,-157.56,840.43,4
1,0,1,0,1,1,-0.85,0.47,-0.11,-206.91,598.45,-980.86,4
1,1,1,0,1,1,-0.78,0.36,-0.03,6.97,188.42,-1092.04,4
1,1,1,0,1,1,-1.22,-0.02,-0.08,-114.1,-338.95,-200.64,4
1,1,1,0,1,1,-1.11,-0.07,0,-178.53,373.87,-670.06,4
1,1,1,0,1,1,-0.53,-0.29,-0.22,-240.8,278.95,-1042.96,4
1,1,0,0,1,1,-0.74,-0.43,-0.2,67.13,-948.21,-25.35,4
1,1,1,0,1,1,-1.03,-0.32,0.05,36.92,407.54,694.87,4
1,1,1,0,1,1,-0.85,-0.16,-0.16,-272.41,804,601.53,4
1,1,0,0,1,1,-0.92,0.05,-0.6,-26.7,438.51,209.5,4
0,1,0,0,1,1,-0.82,0.03,-0.63,85.83,-350.09,9.24,4
0,1,0,0,1,1,-0.76,0.01,-0.25,81.29,-1771.13,134.75,4
1,1,1,1,1,1,-0.94,0.16,0.46,214.09,-1771.13,170.53,4
1,1,1,1,1,0,-0.79,0.01,0.71,-111.51,297.82,95.07,4
1,1,1,0,1,1,-0.75,0.06,0.37,-135.02,-462.29,-10.59,4
1,1,1,0,1,0,-0.67,0.09,0.67,-123.45,-177.29,-29.57,4
1,1,1,0,1,0,-0.8,-0.08,0.6,-515.26,722.49,-430.51,4
1,1,1,0,1,1,-0.76,-0.17,0.34,-676.06,750.49,-1044.74,4
1,1,1,0,1,1,-0.67,-0.39,0.08,71.29,-113.83,-49.73,4
1,1,1,0,1,1,-0.67,-0.12,0.35,742.55,-376.46,1240.19,4
1,1,1,0,1,0,-1.03,0.09,0.52,426.68,-104.59,1054.8,4
1,0,1,0,1,1,-0.97,0.18,0.33,-43.24,682.39,-115.78,4
1,1,1,0,1,1,-0.79,0.25,0.17,-172.15,463.05,-581.96,4
1,1,1,0,1,1,-0.94,0,0.1,-137.29,65.24,-258.52,4
1,1,1,0,1,1,-0.73,0.09,0.05,148.26,-678.12,83.45,4
1,1,1,1,1,1,-0.93,0.11,0.6,312.74,-1771.13,525.21,4
1,1,1,1,1,0,-0.52,0.14,0.77,-218.47,174.48,37.51,4
1,1,1,0,1,0,-0.79,0.05,0.61,-290.14,625.04,-433.11,4
1,1,1,0,1,1,-0.84,-0.02,0.49,-679.36,730.6,-1010.8,4
1,1,1,0,1,1,-0.7,-0.32,0.24,-219.66,142.42,-647.15,4
1,1,1,0,1,1,-0.54,-0.32,0.31,162.31,-220.15,153.99,4
1,1,1,0,1,1,-0.73,-0.29,0.58,287.6,-1099.5,795.89,4
1,1,1,1,1,0,-0.87,-0.31,0.73,-365.38,406.73,-215.18,4
1,1,1,0,1,0,-0.78,-0.13,0.44,-175.02,571.91,22.76,4
1,1,1,0,1,1,-0.71,-0.04,0.33,340.19,1030.69,1163.87,4
1,1,1,0,1,1,-0.91,0.09,0.14,261.55,67.46,463.75,4
1,1,1,0,1,1,-0.87,0.39,0.33,636.88,-492.67,799.89,4
1,0,1,1,1,1,-0.96,0.41,0.09,391.38,265.6,205.39,4
1,0,1,0,1,1,-0.84,0.42,0.19,-343.22,327.17,-602.99,4
1,1,1,0,1,1,-0.84,0.25,0.12,-856.43,276.31,-1618.22,4
1,1,1,0,1,1,-0.92,-0.23,0.14,-281.93,-204.04,-486.78,4
1,1,1,0,1,1,-1.1,-0.27,0.2,25.13,-11.89,249.28,4
1,1,1,0,1,1,-1.08,-0.36,-0.02,-513.1,608.72,-1231.87,4
1,1,1,0,1,1,-0.5,-0.21,-0.05,-329.33,644.61,-780.87,4
1,1,0,0,1,1,-0.55,-0.47,-0.26,-117.02,80.27,956.8,4
1,1,0,0,1,1,-1.05,-0.33,-0.15,-133.67,432.73,1242.35,4
1,1,1,0,1,1,-0.88,0.01,-0.49,-323.44,316.03,711.47,4
0,1,1,0,1,1,-0.81,0.18,-0.31,-122.32,-617.26,759.57,4
1,1,1,0,1,1,-1.18,0.41,-0.14,425.22,-1304.13,854.92,4
1,0,1,0,1,1,-0.95,0.35,-0.18,-95.07,-35.13,63.13,4
1,1,1,0,1,1,-0.98,0.33,-0.06,-351.54,810.27,-1516.17,4
1,1,1,0,1,1,-0.81,-0.03,-0.17,-37.51,694.66,-753.74,4
0,1,0,0,1,1,-0.93,-0.15,-0.29,-208.58,-330.68,126.86,4
0,1,0,0,1,1,-0.86,-0.17,-0.23,92.43,-1324.94,-940.16,4
1,1,0,0,1,1,-0.87,-0.34,0.28,295.55,-902.05,-388.73,4
1,1,1,0,1,0,-0.78,-0.24,0.49,353.81,-293.44,871.67,4
1,1,1,0,1,0,-0.79,0.01,0.58,319.01,6.76,1315.32,4
1,1,1,0,1,1,-0.93,0.33,0.07,-118.1,614.23,54,4
1,1,1,0,1,1,-0.72,0.2,0.29,64.16,148.37,-124.59,4
1,1,1,0,1,1,-0.78,0.28,0.33,261.17,-541.64,918.48,4
1,0,1,1,1,1,-0.64,0.44,0.34,371.06,-632.39,917.4,4
1,0,1,1,1,0,-0.57,0.55,0.39,-249.17,180.58,-367.71,4
1,0,1,1,1,1,-0.78,0.35,0.31,-557.42,616.12,-1252.68,4
1,1,1,0,1,1,-0.87,0.11,0.44,-402.78,345.6,-1386.99,4
1,1,1,0,1,1,-0.92,-0.25,0.3,-229.12,-19.4,-1133.71,4
1,1,1,0,1,1,-0.53,-0.33,0.13,-410.95,266.85,-82.81,4
1,1,1,0,1,1,-0.53,-0.23,0.04,-45.83,-203.61,1129.22,4
1,1,1,0,1,0,-0.88,-0.05,0.38,788.54,-362.9,1089.39,4
1,0,1,0,1,0,-1.19,0.03,0.42,100.43,482.62,-463.48,4
1,1,1,0,1,1,-0.83,0.01,0.22,-619.8,608.18,-1546.6,4
1,1,1,0,1,1,-0.62,-0.55,0.05,-325.06,-10.97,-809.84,4
1,1,0,0,1,1,-0.56,-0.39,0.06,-119.24,-25.73,534.13,4
1,1,0,0,1,1,-1.06,-0.44,0.12,100.75,237.71,309.49,4
1,1,0,0,1,1,-0.78,-0.34,0.1,-17.67,1467.96,26.48,4
0,1,0,0,1,1,-0.71,-0.29,-0.4,-71.29,-168.8,796.71,4
1,1,1,0,1,1,-1.03,0.15,-0.04,135.88,-979.4,1299.43,4
1,0,1,0,1,1,-1.17,0.2,0.01,213.5,-385.33,620.72,4
1,0,1,0,1,1,-0.86,0.25,0.01,-41.89,422.46,-534.18,4
1,1,1,0,1,1,-1.2,0.11,0.05,-173.18,868.21,-1410.99,4
1,1,0,0,1,1,-0.65,-0.16,-0.28,-220.31,331.01,-394.19,4
0,1,0,0,1,1,-0.77,-0.22,-0.36,-252.9,-77.08,581.31,4
1,1,1,0,1,1,-1.05,0.1,-0.37,-272.36,74.81,1561.36,4
1,0,1,0,1,1,-0.91,0.36,-0.44,-82.75,180.26,556.07,4
1,0,1,0,1,1,-0.8,0.43,-0.35,-64.81,60,-421,4
1,1,1,0,1,1,-0.94,0.37,-0.37,181.12,813.73,-1166.79,4
0,1,0,0,1,1,-0.56,-0.13,-0.62,-37.46,159.4,-343.55,4
0,1,0,0,1,1,-0.99,0.06,-0.65,-168.64,-256.79,-175.99,4
0,1,0,0,1,1,-0.69,-0.17,-0.53,602.66,-1103.6,-1168.03,4
1,1,0,0,1,1,-0.95,-0.51,-0.08,193.23,-690.33,-288.52,4
1,1,0,0,1,1,-0.94,-0.32,0,-63.4,-82.81,1108.41,4
1,1,0,0,1,1,-1.03,-0.11,-0.22,-285.22,112.26,591.26,4
1,1,0,0,1,1,-0.98,-0.1,-0.24,-25.08,47.67,-157.77,4
1,1,0,0,1,1,-0.84,-0.07,-0.24,57.62,-221.12,843.95,4
1,1,1,0,1,1,-0.86,0.44,-0.07,187.88,-586.07,1464.28,4
1,0,1,0,1,1,-1.04,0.37,-0.12,-64.21,-197.34,-108.53,4
1,1,1,0,1,1,-0.83,0.31,0.05,-324.74,207.45,-1771.13,4
1,1,1,0,1,1,-0.9,-0.07,-0.02,31.62,-208.74,-980.42,4
1,1,0,0,1,1,-0.87,-0.29,0.1,275.98,-1314.51,251.98,4
1,1,1,0,1,0,-0.88,-0.14,0.53,359.33,-826.11,486.13,4
1,1,1,1,1,0,-0.73,-0.06,0.54,-177.83,1205.38,11.08,4
1,1,1,0,1,1,-0.84,-0.05,0.11,-349.38,568.34,-522.24,4
1,1,1,0,1,1,-1.14,-0.22,0.14,-532.02,24.76,-567.31,4
1,1,1,0,1,1,-0.99,-0.37,0,-361.65,170.48,-456.67,4
1,1,0,0,1,1,-0.57,-0.34,-0.17,89.67,124.21,258.2,4
1,1,1,0,1,1,-1.02,-0.23,0.03,435.54,-6.22,1384.4,4
1,1,1,0,1,1,-1.11,0.03,0.07,51.19,-151.56,237.39,4
1,1,1,0,1,1,-0.87,0.13,0.12,101.83,-136.26,575.58,4
1,1,1,0,1,1,-0.9,0.35,0.09,476.83,-572.13,1129.06,4
1,0,1,0,1,1,-0.85,0.33,0.02,-89.62,435.65,-124.69,4
1,1,1,0,1,1,-0.81,0.38,0.09,-261.28,849.13,-1194.41,4
1,1,1,0,1,1,-1.12,0.12,-0.16,-224.15,191.45,-909.78,4
1,1,1,0,1,1,-0.78,-0.19,-0.26,-162.42,-7.24,-726.12,4
0,1,0,0,1,1,-0.63,-0.31,-0.09,290.04,-1580.71,198.96,4
1,1,1,1,1,0,-0.98,-0.15,0.58,390.14,-232.26,458.4,4
1,1,1,0,1,1,-0.91,-0.05,0.26,-149.61,856.76,104.37,4
1,1,1,0,1,1,-0.77,-0.04,-0.02,-25.51,-379.49,206.96,4
1,1,1,0,1,1,-0.99,0.09,0.43,308.84,-1379.91,500.13,4
1,1,1,0,1,0,-0.8,0.28,0.52,520.67,-123.99,713.41,4
1,0,1,0,1,1,-0.47,0.31,0.39,269.28,179.5,301.93,4
1,0,1,0,1,1,-0.73,0.18,0.47,-880.92,-441.54,-789.25,4
1,1,1,0,1,0,-0.89,0.06,0.55,-628.66,-71.4,-915.13,4
1,1,1,0,1,0,-0.83,-0.23,0.59,-569.37,347.6,-908.7,4
1,1,1,0,1,0,-0.59,-0.32,0.26,-215.34,473.16,-366.25,4
1,1,1,0,1,0,-0.74,-0.19,0.09,240.15,564.61,1258.73,4
1,1,1,0,1,1,-0.92,0.05,0.26,200.64,-577.1,950.26,4
1,0,1,0,1,1,-1.24,0.02,0.31,-27.46,150.96,-317.55,4
1,1,1,0,1,1,-0.83,0.06,0.16,-176.85,1112.47,-1149.17,4
1,1,0,0,1,1,-0.87,-0.27,-0.02,-295.12,-26.48,-180.04,4
1,1,0,0,1,1,-0.87,-0.36,-0.14,-371.11,355.33,-425.7,4
0,1,0,0,1,1,-0.63,-0.4,-0.33,-29.46,332.9,653.26,4
1,1,1,0,1,1,-0.89,-0.03,-0.21,129.56,21.4,1381.42,4
1,1,1,0,1,1,-0.95,0.17,-0.22,-9.13,-234.9,379.65,4
1,1,1,0,1,1,-0.89,0.39,-0.08,258.96,-665.9,875.51,4
1,0,1,0,1,1,-0.96,0.35,-0.18,132.32,23.03,358.95,4
1,0,1,0,1,1,-0.79,0.4,-0.15,-252.63,554.67,-1033.39,4
1,1,1,0,1,1,-0.89,0.19,-0.2,-282.2,89.83,-969.45,4
1,1,1,0,1,1,-1.07,-0.04,-0.17,-226.26,457.05,-105.99,4
1,1,1,0,1,1,-1.03,-0.02,-0.29,-198.04,1020.15,-110.16,4
0,1,0,0,1,1,-0.87,-0.11,-0.63,-21.46,-66.54,-9.03,4
1,1,0,0,1,1,-1.08,-0.03,-0.35,177.45,-963.24,442.46,4
1,1,1,0,1,1,-1.1,0.1,-0.14,65.24,-470.08,369.49,4
1,1,1,0,1,1,-0.84,0.26,-0.04,202.42,-913.51,604.02,4
1,0,1,0,1,1,-1.03,0.4,0.15,421.05,-485.81,835.89,4
1,0,1,0,1,1,-0.84,0.32,0.08,-453.54,341.6,-690.01,4
1,1,1,0,1,1,-0.79,0.3,0.1,-516.02,804.65,-1464.18,4
1,1,1,0,1,1,-0.96,-0.17,0.02,-19.19,-279.71,-717.14,4
1,1,1,0,1,1,-0.82,-0.36,0.2,113.72,-1207.81,-859.73,4
1,1,1,1,1,0,-0.57,-0.3,0.33,-33.13,255.5,128.26,4
1,1,1,0,1,1,-0.77,-0.33,0.17,-256.25,943.61,900.64,4
1,1,1,0,1,1,-0.95,-0.23,-0.03,32.16,-124.05,646.5,4
1,1,1,0,1,1,-0.91,-0.01,0.23,225.72,-1110.79,227.72,4
1,1,1,1,1,1,-0.84,0.11,0.52,228.96,-1238.57,111.07,4
1,1,1,1,1,0,-0.66,-0.03,0.65,-165.23,803.84,-99.56,4
1,1,1,0,1,1,-0.73,0.15,0.38,-193.77,921.94,-29.57,4
1,1,1,0,1,1,-1.51,-0.07,0.54,235.71,-178.58,479.05,4
1,0,1,0,1,1,-0.85,0.18,0.19,284.74,-117.29,586.02,4
1,0,1,0,1,1,-0.87,0.23,0.25,-549.05,424.51,-881.19,4
1,1,1,0,1,1,-0.77,0.05,0.23,-495.91,7.08,-1325.27,4
1,1,1,0,1,1,-0.86,-0.12,0.18,56.64,-177.29,152.37,4
1,1,1,0,1,0,-0.89,0.02,0.23,344.36,480.02,928.1,4
1,1,1,0,1,1,-0.89,0.11,0.12,239.17,-80.97,526.24,4
1,0,1,0,1,1,-0.99,0.19,0.14,-4.27,-70.54,-180.64,4
1,1,1,0,1,1,-1.12,0.13,0.09,-314.9,847.08,-1054.36,4
1,1,1,0,1,1,-0.79,-0.09,-0.02,-174.04,266.25,-740.22,4
1,1,0,0,1,1,-0.85,-0.35,-0.07,-226.04,-428.19,-283.82,4
1,1,0,0,1,1,-0.86,-0.38,-0.03,-41.89,-599.42,-225.55,4
1,1,0,0,1,1,-0.76,-0.37,0.08,-7.51,-321.38,127.45,4
1,1,0,0,1,1,-0.71,-0.18,0.28,290.95,-862.81,786.98,4
1,1,1,0,1,0,-0.88,0.05,0.59,494.29,-666.77,693.04,4
1,1,1,0,1,0,-0.75,0.13,0.53,286.68,65.89,475.59,4
1,0,1,0,1,0,-0.69,0.29,0.48,305.82,481.54,433.81,4
1,0,1,0,1,1,-0.7,0.31,0.28,-54.32,275.87,-67.02,4
1,0,1,0,1,1,-0.96,0.27,0.25,-208.91,768.49,-489.48,4
1,1,1,0,1,1,-0.84,0.22,-0.08,-324.25,818.54,-885.62,4
1,1,1,0,1,1,-0.99,-0.05,-0.11,-87.51,139.13,-173.45,4
1,1,1,0,1,1,-1.11,-0.14,-0.04,-329.92,89.62,-1013.39,4
1,1,0,0,1,1,-0.84,-0.48,-0.22,-224.63,-285.33,-972.32,4
1,1,0,0,1,1,-0.74,-0.46,-0.15,-137.23,-207.66,-267.28,4
1,1,0,0,1,1,-0.54,-0.4,-0.01,430.89,-799.62,482.24,4
1,1,1,0,1,1,-0.91,-0.43,0.33,302.2,-614.66,312.84,4
1,1,0,0,1,1,-0.77,-0.2,0.36,288.74,-483.43,651.63,4
1,1,1,1,1,0,-0.8,0.12,0.52,760,-378.35,1222.68,4
1,1,1,0,1,0,-0.77,0.17,0.43,401.76,152.42,740.22,4
1,0,1,0,1,0,-0.72,0.37,0.38,481.1,724.49,301.22,4
1,0,1,0,1,1,-0.86,0.37,0.15,-232.09,965.88,-405.27,4
1,1,1,0,1,1,-0.9,0.42,0.01,-167.12,614.12,-334.79,4
1,0,1,0,1,1,-0.85,0.24,-0.13,-236.53,993.23,-965.94,4
1,1,1,0,1,1,-0.93,-0.05,-0.3,50.32,371.49,-728.76,4
1,1,0,0,1,1,-1.15,-0.13,-0.43,-157.12,120.42,-562.61,4
0,1,0,0,1,1,-0.84,-0.43,-0.32,-24.43,-573.91,-1098.31,4
1,1,0,0,1,1,-0.7,-0.51,-0.26,-54.65,-543.15,-533.97,4
1,1,0,0,1,1,-0.63,-0.38,-0.14,154.37,-472.89,199.77,4
1,1,0,0,1,1,-0.93,-0.56,0.21,541.64,-843.78,628.99,4
1,1,1,0,1,0,-0.95,-0.4,0.35,112.59,-323.82,91.94,4
1,1,0,0,1,1,-0.68,-0.2,0.34,187.18,-270.14,330.36,4
1,1,1,0,1,0,-0.83,0.12,0.82,659.85,-633.69,987.07,4
1,1,1,0,1,0,-0.81,0.08,0.57,445.86,162.64,949.56,4
1,0,1,0,1,0,-0.78,0.18,0.39,163.99,664.77,82.54,4
1,0,1,0,1,1,-0.66,0.39,0.31,-593.2,583.26,-694.82,4
1,1,1,0,1,1,-0.95,0.08,0.3,-523.21,-79.67,-911.18,4
1,1,1,0,1,1,-0.81,-0.21,0.4,-162.37,-784.06,-1422.56,4
1,1,1,0,1,0,-0.61,-0.28,0.47,-9.68,62.64,-13.57,4
1,1,1,0,1,0,-0.79,-0.27,0.32,-48.05,543.26,546.94,4
1,1,1,0,1,1,-0.92,-0.25,0.24,75.78,311.28,335.71,4
1,1,1,0,1,1,-0.98,-0.11,0.21,195.39,1109.5,1065.99,4
1,1,1,0,1,1,-0.88,0.15,-0.23,-128.64,823.78,906.75,4
1,0,1,0,1,1,-0.82,0.26,-0.34,0.76,64.91,-325.33,4
1,1,1,0,1,1,-1.01,0.11,-0.19,70.21,-171.66,-632.23,4
1,1,1,0,1,1,-1.25,0.04,-0.21,-96.32,25.94,-1036.58,4
1,1,0,0,1,1,-0.63,-0.35,-0.35,171.61,81.62,-1052.69,4
0,1,0,0,1,1,-0.61,-0.5,-0.34,-58.59,28.48,361.76,4
1,1,0,0,1,1,-0.89,-0.25,-0.32,-30.38,-244.9,557.32,4
1,1,0,0,1,1,-0.97,-0.18,-0.31,-84.16,112.91,168.53,4
0,1,0,0,1,1,-0.74,-0.09,-0.21,28.54,-788.17,775.57,4
1,1,1,0,1,1,-1.02,0.28,0.24,462.83,-1771.13,1005.94,4
1,0,1,0,1,1,-0.97,0.15,0.27,-125.02,472.62,-42.54,4
1,1,1,0,1,1,-0.98,0.18,0.19,-380.73,423,-991.5,4
1,1,1,0,1,1,-0.96,-0.06,0.11,-222.36,101.94,-948.43,4
1,1,1,0,1,1,-0.81,-0.3,0.15,-283.98,-63.73,-1204.84,4
1,1,1,0,1,1,-0.57,-0.43,-0.11,-76.7,243.77,152.96,4
1,1,0,0,1,1,-0.83,-0.47,0.1,90.8,-112.7,305.01,4
1,1,0,0,1,1,-0.84,-0.4,0,-6.59,103.13,290.47,4
1,1,0,0,1,1,-0.88,-0.2,0,76.16,41.84,1209.81,4
1,1,1,0,1,1,-1.03,0.32,0.31,403.76,-669.15,1771.07,4
1,0,1,0,1,1,-0.93,0.18,-0.08,-123.61,175.34,24.38,4
1,1,1,0,1,1,-0.75,0.38,0.15,-121.18,277.55,-809.57,4
1,1,1,0,1,1,-1.14,0.17,0.06,-208.64,-66.64,-291.17,4
1,1,1,0,1,1,-1.23,-0.06,0.13,-315.6,-177.45,-1771.13,4
1,1,1,0,1,1,-0.6,-0.34,0.11,-304.47,-391.38,-1771.13,4
1,1,0,1,1,1,-0.28,-0.53,0.03,-45.08,418.3,735.9,4
1,1,0,0,1,1,-0.83,-0.65,0.1,-60.59,276.36,908.05,4
1,1,0,0,1,1,-0.94,-0.45,-0.02,19.13,-9.95,147.88,4
1,1,0,0,1,1,-0.81,-0.08,0.1,19.3,51.29,1575.52,4
1,1,1,0,1,1,-0.95,0.44,0.21,141.67,-629.31,1771.07,4
1,0,1,1,1,1,-1.19,0.38,-0.17,-3.89,59.56,87.51,4
1,0,1,0,1,1,-0.98,0.45,0.18,-268.85,530.56,-1618.33,4
1,1,1,0,1,1,-0.87,0.1,0.07,-146.59,91.83,-586.83,4
1,1,1,0,1,1,-0.93,-0.1,-0.08,208.58,-641.2,-1065.99,4
1,1,1,0,1,1,-0.79,-0.31,0.15,497.21,-1234.62,-738.38,4
1,1,1,0,1,0,-0.84,-0.29,0.57,-199.5,422.46,224.53,4
1,1,1,0,1,1,-0.8,-0.32,0.25,61.89,-50.7,601.47,4
1,1,1,0,1,1,-0.63,-0.06,0.58,298.63,-1681.19,522.94,4
1,1,1,1,1,0,-0.61,-0.03,0.63,58.37,-123.13,334.19,4
1,1,1,1,1,0,-0.6,-0.05,0.66,-342.68,1014.85,-162.8,4
1,1,1,0,1,1,-0.75,-0.02,0.41,-248.15,866.59,-219.28,4
1,1,1,0,1,1,-0.92,-0.11,0.3,-96.86,638.34,103.94,4
1,1,1,0,1,1,-0.98,-0.1,0.09,-247.01,1604.98,-102.48,4
1,1,1,0,1,1,-0.74,-0.15,-0.24,-320.79,1665.68,-265.87,4
0,1,0,0,1,1,-0.91,-0.32,-0.57,-141.4,-0.49,234.69,4
0,1,0,0,1,1,-0.89,-0.03,-0.35,90.1,-1207.44,443.54,4
1,1,1,0,1,1,-1.04,0.02,-0.14,122.75,-368.08,316.2,4
1,0,1,0,1,1,-1.27,-0.04,-0.17,-391.16,37.62,-1248.68,4
1,1,1,0,1,1,-0.66,-0.36,-0.03,-196.8,-391.92,-1613.36,4
1,1,0,0,1,1,-0.55,-0.39,-0.07,150.8,-12.54,738.49,4
1,1,0,0,1,1,-0.88,-0.4,0.01,-21.67,86.48,1077.55,4
1,1,0,0,1,1,-1,-0.22,-0.12,-15.67,94.75,-45.29,4
1,1,0,0,1,1,-0.93,-0.02,0.18,113.45,-398.57,1222.84,4
1,1,1,0,1,1,-0.95,0.5,0.18,201.28,-1020.15,1724.86,4
1,0,1,1,1,1,-0.92,0.37,0.04,49.4,216.31,234.53,4
1,0,1,1,1,1,-0.85,0.64,0.42,-424.57,657.96,-1509.25,4
1,1,1,0,1,1,-0.88,0.18,0.08,-81.83,207.18,-851.08,4
1,1,1,0,1,1,-0.92,0.01,0.14,178.42,-800.76,-148.58,4
1,1,1,0,1,1,-0.82,0.05,0.45,-12.86,-1771.13,330.68,4
1,1,1,1,1,0,-0.54,-0.09,0.74,-9.95,-218.8,299.49,4
1,1,1,1,1,0,-0.6,0.02,0.58,-338.09,993.88,-366.14,4
1,1,1,0,1,0,-0.78,-0.03,0.46,-336.79,738.38,-548.07,4
1,1,1,0,1,0,-1.02,-0.34,0.36,-482.19,212.63,-957.99,4
1,1,1,0,1,0,-0.73,-0.45,0.17,-236.53,-5.03,-1001.39,4
1,1,0,0,1,0,-0.43,-0.47,0.26,-32,78.97,156.31,4
1,1,0,0,1,0,-0.8,-0.42,0.22,257.71,258.63,1259.59,4
1,1,1,1,0,1,0.99,0.49,-0.23,-133.74,498.1,95.44,5
1,1,1,1,0,1,0.98,0.34,-0.11,552.74,-151.44,-2498.89,5
1,1,1,1,0,1,0.93,-0.64,-0.09,181.06,-43.45,-1242.36,5
0,1,0,1,0,1,0.77,-0.64,-0.14,337.17,101.63,1704.18,5
1,1,1,1,0,1,1.11,0.43,-0.15,302.48,-165.12,1916.05,5
1,1,1,1,0,1,1.08,0.37,-0.17,4.99,-237.71,464.23,5
1,1,1,1,0,1,0.8,0.31,-0.21,492.15,-523.61,602.07,5
1,1,1,1,0,1,0.95,0.46,0.05,1124.08,-1339.65,-1304.57,5
1,1,1,1,0,1,1.1,0.16,0.79,-233.76,-116.12,-1314.63,5
1,1,1,1,0,1,0.76,-0.21,0.1,98.57,118.69,-443.22,5
1,1,1,1,0,1,0.97,-0.13,0.4,-281.48,-1052.22,37.58,5
1,1,1,1,0,1,0.82,0.01,0.82,105.33,-675.94,44.5,5
1,1,1,1,1,0,0.88,-0.05,0.98,135.51,697.67,-71.38,5
1,1,1,1,1,1,0.71,-0.18,0.4,-116.44,2157.14,3.86,5
1,1,1,1,0,1,0.93,-0.06,-0.23,122.23,1029.93,188.78,5
1,1,1,1,0,1,1.15,0.05,0,99.06,478.87,203.1,5
1,1,1,1,0,1,0.87,-0.15,-0.26,151.04,1635.3,250.58,5
1,1,1,1,0,1,0.71,0.18,-0.83,396.39,1622.9,381.34,5
1,0,1,1,0,1,0.92,0.18,-0.82,97.53,29.29,-32.51,5
1,1,1,1,0,1,0.86,0.19,-0.72,-314.63,-920.33,-260.08,5
1,1,1,1,0,1,1.05,0.05,-0.15,70.09,-1208.09,-1022.76,5
0,1,1,1,0,1,0.94,-0.61,-0.12,224.19,-372.57,-231.43,5
0,1,1,1,0,1,0.73,-0.19,-0.36,-241.81,330.17,2414.56,5
1,1,1,1,0,1,0.86,0.85,-0.61,1.37,106.22,1795.59,5
1,0,1,1,0,1,0.99,0.79,-0.37,71.78,161.18,-818.05,5
1,1,1,1,0,1,0.82,0.26,-0.42,-123.2,389.23,-1959.1,5
1,1,1,1,0,1,1.01,0.12,-0.46,-59.31,-10.46,-1061.95,5
0,1,1,1,0,1,0.7,-0.13,-0.71,-249.13,-1252.75,-2101.37,5
0,1,0,1,0,1,0.87,-1.13,0.44,116.76,-368.71,-944.55,5
0,1,0,1,0,1,0.78,-0.65,-0.06,398,202.78,1350.03,5
0,1,1,1,0,1,0.97,0.03,-0.55,289.93,-901.82,1589.11,5
1,1,1,1,0,1,1.03,0.09,-0.13,169.31,-1495.92,446.6,5
1,1,1,1,0,1,1.04,0.02,0.5,-34.92,-1504.45,72.02,5
1,1,1,1,1,1,0.84,-0.12,0.83,51.5,-27.36,-229.34,5
1,1,1,1,0,1,0.79,-0.14,0.4,-448.37,1230.54,454.89,5
1,1,1,1,0,1,0.92,0.14,0.08,-525.06,901.42,1612.68,5
1,1,1,1,0,1,1.04,0.72,-0.14,85.62,323.73,702.01,5
1,1,1,1,0,1,0.98,0.59,-0.01,332.42,-329.2,-1605.04,5
1,1,1,1,0,1,0.84,-0.05,0.15,572.54,-182.26,-2191.02,5
1,1,1,1,0,1,0.83,-0.64,0.04,111.21,163.43,58.34,5
1,1,1,1,0,1,0.97,-0.03,0.01,-49.49,98.57,1353.09,5
1,1,1,1,0,1,1.2,0.33,0.3,21.81,-657.19,501.73,5
1,1,1,1,1,0,1.13,0.13,0.71,-22.93,1721,-600.94,5
1,1,1,1,0,1,0.59,-0.12,-0.64,-3.7,1861.5,-153.7,5
0,1,1,1,0,1,0.97,-0.27,-0.66,57.29,-541.32,548.4,5
1,1,1,1,0,1,1,0.25,-0.08,-325.74,43.21,2057.44,5
1,0,1,1,0,1,0.94,0.91,-0.26,24.78,246.64,351.97,5
1,0,1,1,0,1,0.71,0.55,-0.56,95.6,-81.03,-1874.05,5
1,1,1,1,0,1,0.92,-0.18,-0.36,165.61,-704.91,-1211.22,5
1,1,1,1,0,1,1.04,-0.3,0.02,98.09,1488.6,-353.34,5
0,1,1,1,0,1,0.59,-0.04,-1.44,194.49,1312.86,354.39,5
0,1,1,1,0,1,0.93,0,-0.84,327.35,-628.38,224.27,5
1,1,1,1,0,1,0.88,0.2,-0.26,197.15,-1703.53,198.84,5
1,1,1,1,0,1,1.1,-0.01,0.14,156.75,424.15,-358.73,5
0,1,1,1,0,1,0.95,-0.23,-0.43,-79.99,-190.55,960.56,5
1,1,1,1,0,1,1.07,0.43,0.09,93.18,-488.93,1898.11,5
1,0,1,1,0,1,1.05,0.85,-0.23,36.45,140.74,189.51,5
1,0,1,1,0,1,0.8,0.77,-0.22,5.63,462.22,-2463.08,5
1,1,1,1,0,1,0.73,-0.49,-0.42,-103.97,-570.04,-1182.66,5
0,1,1,1,0,1,0.68,-0.21,-0.58,179.53,-2230.61,59.23,5
1,1,1,1,1,0,1.17,-0.11,1.24,-78.94,-398.08,-26.23,5
1,1,1,1,0,1,0.88,-0.17,0.4,151.68,1739.75,13.12,5
1,1,1,1,0,1,0.83,-0.1,-0.59,218.47,98.9,133.58,5
1,1,1,1,0,1,1.2,0.05,0.14,178.24,-735.41,-511.78,5
1,1,1,1,0,1,1.07,-0.33,0.34,328.31,-491.35,-1571.48,5
1,1,1,1,0,1,0.69,-0.77,0.09,153.78,-19.63,383.28,5
1,1,1,1,0,1,0.8,-0.28,0.1,54.72,594.35,1639.48,5
1,1,1,1,0,1,1.1,0.13,-0.08,-62.93,255.49,1170.75,5
1,1,1,1,0,1,0.8,0.18,-0.24,-84.9,-1223.62,1341.82,5
1,1,1,1,1,0,1.11,0.52,0.43,362.19,-658.24,831.17,5
1,1,1,1,0,0,0.9,0.56,0.31,356.4,-122.23,-1257.25,5
1,1,1,1,0,1,0.72,-0.03,0.21,112.58,-443.79,-1658.63,5
1,1,1,1,0,1,0.93,-0.25,0.66,276.25,336.12,-710.54,5
1,1,1,1,0,1,0.85,-0.26,0.31,362.11,642.87,16.98,5
1,1,1,1,0,1,0.8,-0.28,0.21,-424.48,857.4,2038.37,5
1,1,1,1,0,1,0.96,0.61,-0.12,-333.06,-188.78,1736.69,5
1,1,1,1,0,0,1.17,0.94,0.16,119.74,322.52,-546.63,5
1,1,1,1,0,1,0.6,0.28,-0.04,247.93,313.27,-2524.96,5
1,1,1,1,0,1,0.97,-0.2,0.14,260.96,-364.28,-1095.99,5
1,1,1,1,0,1,1.07,-0.24,0.23,-10.14,-211.15,-1146.53,5
1,1,1,1,0,1,0.81,-0.78,0.25,170.11,1333.05,-818.45,5
0,1,0,1,0,1,0.43,-0.72,-0.36,572.22,1163.75,1215.49,5
0,1,1,1,0,1,0.94,-0.25,-0.51,267.56,150.72,1395.66,5
1,1,1,1,0,1,1,0.09,-0.35,180.17,-453.52,2076.03,5
1,1,1,1,0,1,0.94,0.74,-0.24,48.76,-609.23,1200.52,5
1,0,1,1,0,1,0.87,0.46,-0.21,252.03,-114.19,59.63,5
1,0,1,1,0,1,0.95,0.71,-0.33,704.27,-1181.13,-898.92,5
1,1,1,1,1,1,0.93,0.12,0.6,395.99,-1279.78,-1168.01,5
1,1,1,1,0,1,0.88,0.1,0.23,109.68,-427.05,-161.82,5
1,1,1,1,1,1,1,0.11,0.67,89,-628.79,-709.98,5
1,1,1,1,1,1,0.88,-0.11,0.8,260,548.4,-43.78,5
1,1,1,1,0,1,0.66,-0.13,0.22,-488.29,1266.1,1533.34,5
1,1,1,1,0,1,1.01,0.55,0.02,-221.45,255.09,1005.87,5
1,1,1,1,0,1,1.02,0.66,0,522,-459.88,-1353.81,5
1,1,1,1,1,1,0.87,0.01,0.58,770.49,-852.81,-2420.68,5
1,1,1,1,0,1,0.74,-0.56,0.3,418.6,640.7,-958.23,5
1,1,1,1,0,1,0.78,-0.6,0.2,297.9,440.89,-0.32,5
0,1,1,1,0,1,0.79,-0.59,0.19,46.83,950.99,1325.49,5
1,1,1,1,0,1,1,0.18,-0.2,230.14,1183.62,1156.26,5
1,1,1,1,0,1,1.2,0.03,-0.19,224.99,-157.16,-229.98,5
1,1,1,1,0,1,0.9,-0.32,-0.19,-105.01,354.63,1441.85,5
1,1,1,1,0,1,0.9,0.53,-0.34,-232.31,-172.12,1750.05,5
1,0,1,1,0,1,1,0.8,-0.45,155.95,48.68,-281.56,5
1,1,1,1,0,1,0.78,0.46,-0.54,113.3,-478.63,-2031.29,5
1,1,1,1,0,1,1.09,-0.25,0.17,283.09,-536.33,-1163.75,5
1,1,1,1,0,1,1.05,0.02,-0.24,302.56,-210.75,-746.75,5
1,1,1,1,0,1,1.01,-0.43,0.36,-96,-1712.31,-1357.36,5
1,1,1,1,1,1,0.99,-0.41,0.92,-126.9,-144.6,494.24,5
1,1,1,1,0,1,0.77,-0.31,-0.07,295.32,315.36,510.9,5
1,1,1,1,0,1,0.88,-0.23,0.2,253.72,-1471.94,251.55,5
1,1,1,1,1,1,0.79,-0.38,0.77,-73.71,-597.73,38.95,5
1,1,1,1,1,0,0.83,-0.39,0.67,-136.23,716.74,26.96,5
1,1,1,1,0,1,0.65,-0.32,0,-330.97,1682.93,520.56,5
1,1,1,1,0,1,1,-0.11,0.05,-447.65,114.11,889.35,5
1,1,1,1,0,1,1.02,0.11,0.34,-602.8,103.08,1749.88,5
1,1,1,1,0,1,1.02,0.69,-0.1,253.24,102.28,463.1,5
1,1,1,1,0,1,0.87,0.46,0.15,672.64,-470.02,-1333.94,5
1,1,1,1,0,1,0.96,0.03,0.43,597.56,-557.81,-804.61,5
1,1,1,1,0,1,0.79,-0.17,0.25,492.79,-1417.47,-531.34,5
1,1,1,1,1,0,0.75,-0.36,0.87,8.05,169.23,205.68,5
1,1,1,1,0,1,0.77,-0.03,0.45,-709.1,1004.74,1122.87,5
1,1,1,1,0,1,0.89,0.17,0.24,-467.04,628.22,913.25,5
1,1,1,1,0,1,0.76,0.47,0.05,-342.24,-199.24,1158.03,5
1,1,1,1,1,0,0.85,0.77,0.61,-128.11,-593.78,195.86,5
1,1,1,1,1,0,0.86,0.55,0.26,103.24,1115.46,-1431.79,5
1,1,1,1,0,1,0.69,0,-0.2,129.72,1149.74,-1356.71,5
1,1,1,1,0,1,1.24,0.26,0.04,164.88,216.86,-447.97,5
1,1,1,1,0,1,0.84,0.04,-0.11,284.94,1236.49,-1892.07,5
0,1,1,1,0,1,0.7,-0.94,-0.49,-18.27,193.13,145.73,5
0,1,1,1,0,1,0.94,-0.25,-0.25,18.11,105.01,1845.88,5
1,1,1,1,0,1,1.25,0.49,-0.19,-60.35,-147.5,1041.03,5
1,1,1,1,0,1,1.05,0.1,-0.23,19.8,205.6,816.92,5
1,1,1,1,0,1,0.92,0.6,-0.39,19.88,734.85,1156.5,5
1,0,1,1,0,1,0.62,0.82,-0.82,89.88,-14.73,-514.76,5
1,1,1,1,0,1,1,0.17,-0.16,192.64,-852.57,-1255.48,5
1,1,1,1,0,1,1.09,0.17,-0.21,22.37,174.94,-325.02,5
1,1,1,1,0,1,0.83,0.15,-0.61,213.73,-934.81,-837.36,5
1,1,1,1,0,1,0.98,-0.19,0.26,294.92,-1929.73,-341.51,5
1,1,1,1,0,1,1.16,-0.07,0.49,180.65,42.17,114.67,5
1,1,1,1,0,1,0.91,-0.03,-0.23,216.06,-683.75,-61.08,5
1,1,1,1,0,1,1.07,0.06,0.54,146.94,-1088.19,-735.01,5
1,1,1,1,0,1,0.79,-0.4,0.53,273.43,31.95,-552.1,5
1,1,1,1,0,1,0.62,-0.41,0.26,-556.61,261.93,1307.87,5
1,1,1,1,0,1,1.02,0.37,0.33,-537.21,14,1336.84,5
1,1,1,1,0,1,0.95,0.11,0.54,-394.62,403.96,816.52,5
1,1,1,1,0,1,0.73,0.6,0.16,-715.69,526.11,1742.96,5
1,0,1,1,0,0,0.89,1.06,0.19,168.82,159.09,-291.06,5
1,1,1,1,0,1,0.62,0.62,-0.02,930.55,185,-2475.4,5
1,1,1,1,0,1,0.97,-0.08,0.35,324.53,-668.3,-255.65,5
1,1,1,1,0,1,0.77,0.13,-0.25,296.13,-728.49,-469.14,5
1,1,1,1,1,1,0.94,-0.01,1.3,216.62,-378.45,-375.71,5
1,1,1,1,1,1,1.02,0.07,0.59,212.44,1199.07,-273.68,5
1,1,1,1,0,1,1.02,0.12,-0.05,157.24,808.15,-1130.67,5
1,1,1,1,0,1,0.98,-0.4,0.29,89,301.84,-1749.88,5
0,1,1,1,0,1,0.47,-0.72,-0.32,103.81,369.76,-252.51,5
0,1,0,1,0,1,0.7,-0.71,0.12,-103.16,338.61,1695.25,5
1,1,1,1,0,1,0.98,0.05,-0.08,271.5,238.83,1922.73,5
1,1,1,1,0,1,1.21,0.37,-0.06,119.26,-127.87,746.27,5
1,1,1,1,0,1,1.03,0.11,0.11,-470.99,428.74,1396.38,5
1,0,1,1,0,1,0.6,0.57,-0.47,-200.45,0,1499.14,5
1,0,1,1,0,1,0.98,1.1,-0.15,183.39,79.99,-1090.36,5
1,1,1,1,0,1,0.72,0.27,-0.15,252.43,357.85,-2636.74,5
1,1,1,1,0,1,1.03,-0.18,-0.03,-44.98,-77.57,-700.81,5
1,1,1,1,0,1,0.96,0.14,-0.35,79.99,-397.36,-1571.16,5
0,1,1,1,0,1,0.77,-0.75,0.19,145.89,-784.58,-1867.13,5
0,1,0,1,0,1,0.48,-1.18,-0.13,12.31,191.11,797.37,5
0,1,1,1,0,1,0.72,-0.4,0.01,253.48,347.95,2066.21,5
1,1,1,1,0,1,1.21,0.14,0.12,259.51,699.6,1153.37,5
1,1,1,1,0,1,0.96,0.05,-0.3,214.93,2149.17,-146.29,5
0,0,1,1,0,1,0.65,-0.09,-1.29,148.71,-140.5,-19.71,5
1,1,1,1,0,1,1.16,-0.2,-0.09,75.24,-669.83,465.11,5
1,1,1,1,0,1,0.99,0.26,-0.51,137.44,642.47,1763.24,5
1,0,1,1,0,1,0.69,0.79,-0.68,242.05,-936.74,885.08,5
1,0,1,1,0,1,0.85,0.49,-0.25,138.17,-1058.57,-647.38,5
1,1,1,1,0,1,1.01,0.26,-0.07,-37.42,-234.97,78.94,5
1,1,1,1,0,1,0.97,0.64,-0.48,120.46,-471.87,-491.67,5
1,1,1,1,0,1,0.8,-0.07,0.27,484.42,-1964.01,-1319.94,5
1,1,1,1,0,1,1.03,0.12,0.56,470.75,-610.6,-1016.73,5
1,1,1,1,1,1,1.02,-0.12,0.75,580.42,71.62,-2047.86,5
1,1,1,1,0,1,0.5,-0.84,0.16,388.34,1297,-725.19,5
0,1,0,1,0,1,0.6,-0.74,-0.06,226.12,545.98,1219.11,5
1,1,1,1,0,1,1.02,-0.17,-0.07,46.11,-164.24,1861.42,5
1,1,1,1,0,1,1.14,0.1,0.12,-73.63,-323.41,1280.75,5
1,1,1,1,0,1,0.76,0.03,0.15,-149.27,-85.7,1917.26,5
1,1,1,1,1,0,0.75,0.98,0.22,-11.67,-118.53,1799.13,5
1,0,1,1,1,0,0.88,0.95,0.09,133.5,-4.91,-421.02,5
1,1,1,1,1,1,0.74,0.78,-0.04,197.95,291.06,-1893.28,5
1,1,1,1,0,1,0.83,0.18,-0.03,126.18,311.58,-1054.31,5
1,1,1,1,0,1,0.93,0.21,-0.37,464.23,-447.01,-453.04,5
1,1,1,1,0,1,0.85,-0.03,0.04,279.87,-1548.47,-1097.68,5
1,1,1,1,1,1,0.75,-0.36,1.12,247.2,-597.56,-182.42,5
1,1,1,1,1,0,0.99,0,0.8,238.83,1519.98,199.81,5
1,1,1,1,0,1,0.89,-0.04,-0.24,307.47,1471.22,-637.16,5
0,1,1,1,0,1,0.99,-0.39,-0.07,46.91,391.32,-111.77,5
1,1,1,1,0,1,0.99,-0.55,0.06,7.73,1062.68,807.91,5
1,1,1,1,0,1,0.91,0.24,-0.51,331.69,1561.91,1285.42,5
1,0,1,1,0,1,1.05,0.77,-0.73,11.51,315.92,-939.24,5
0,1,1,1,0,1,0.7,-0.47,-0.6,-286.63,-550.17,-1369.99,5
0,1,0,1,0,1,0.88,-0.85,-0.04,-103.64,471.47,1542.11,5
1,1,1,1,0,1,0.72,0.55,-1.11,418.92,345.45,1654.53,5
1,0,1,1,0,1,0.8,0.44,-0.61,160.46,-601.75,425.92,5
1,0,1,1,0,1,0.74,0.5,-0.74,-88.76,-1048.68,-228.05,5
1,1,1,1,0,1,0.82,0.24,-0.34,136.23,-1795.59,-1642.54,5
1,1,1,1,0,1,1.12,-0.26,0.36,520.31,-905.68,-1003.13,5
1,1,1,1,0,1,1.06,-0.24,0.14,471.23,-9.9,-403.79,5
1,1,1,1,0,1,1.02,-0.31,0.11,348.83,214.05,-583.24,5
0,1,1,1,0,1,0.93,-0.63,0.12,443.55,913.65,-140.74,5
1,1,1,1,0,1,0.66,-0.28,-0.34,362.67,1041.27,1145.08,5
1,1,1,1,0,1,1.07,0.18,-0.46,69.44,-160.21,-226.6,5
0,1,1,1,0,1,0.97,-0.42,-0.43,101.47,-528.52,-453.77,5
0,1,1,1,0,1,0.84,-0.62,-0.32,-700.4,-580.59,1800.9,5
1,1,1,1,0,1,0.86,0.7,0,-545.42,-473.4,2558.6,5
1,0,1,1,0,1,1,0.8,-0.18,33.72,58.26,123.84,5
1,1,1,1,0,1,0.61,0.27,-0.33,-0.8,-658.4,-1261.28,5
1,1,1,1,0,1,1.03,0.09,0.47,-72.58,-944.47,-285.59,5
1,1,1,1,0,1,1.15,0.51,0.36,210.27,-391.48,-344.25,5
1,1,1,1,0,1,0.88,0.3,0.25,814.75,-222.74,-2259.26,5
1,1,1,1,0,1,0.65,-0.61,0.48,427.69,320.27,-642.23,5
1,1,1,1,0,1,0.86,-0.52,0.37,26.23,385.61,1415.53,5
1,1,1,1,0,1,1.01,0.31,0.08,-130.52,230.62,2200.67,5
1,1,1,1,0,1,0.87,0.46,-0.45,167.3,-937.87,83.93,5
1,1,1,1,1,0,0.89,0.3,1.35,719.4,-2140.64,-629.67,5
1,1,1,1,1,0,0.82,0.15,0.96,191.11,231.43,-117.4,5
1,1,1,1,1,1,0.66,0.09,0.4,231.91,2020.82,-339.18,5
1,1,1,1,0,1,0.97,0.16,-0.18,336.92,964.5,-928.7,5
1,1,1,1,0,1,0.97,-0.26,0.14,895.46,-405.24,-1569.07,5
0,1,1,1,0,1,0.68,-0.74,-0.01,148.39,165.36,-160.86,5
0,1,1,1,0,1,0.8,-0.57,0.09,-435.9,209.38,1618,5
1,1,1,1,0,1,0.95,0.28,0.07,-343.6,-368.55,1984.21,5
1,1,1,1,0,1,0.92,0.39,0.07,-828.11,-101.63,1510.17,5
1,1,1,1,0,1,0.77,0.72,-0.18,-120.86,-190.39,939.16,5
1,0,1,1,0,1,0.76,0.71,-0.07,1368.78,-985.67,-1024.7,5
1,1,1,1,1,0,0.87,0.2,0.95,777.9,-1131.96,-1321.47,5
1,1,1,1,1,0,0.96,0.18,1.01,778.46,611.16,-984.38,5
1,1,1,1,1,1,0.78,-0.1,0.48,594.19,1854.41,-686.56,5
1,1,1,1,0,1,0.84,-0.29,-0.12,400.42,706.52,-241.09,5
1,1,1,1,0,1,0.92,-0.47,0.12,-294.92,207.77,1569.47,5
1,1,1,1,0,1,0.94,0.47,-0.01,-718.75,-21.16,2194.48,5
1,1,1,1,0,1,1,0.69,-0.02,-324.69,224.99,408.94,5
1,0,1,1,0,1,1.02,0.87,-0.02,167.54,536.49,-1943.65,5
1,1,1,1,0,1,0.62,-0.3,-0.45,346.1,-266.35,-2267.38,5
1,1,1,1,0,1,1.05,-0.53,0.24,537.29,-612.53,-602.71,5
1,1,1,1,0,1,1.02,-0.46,0.15,260.16,855.55,322.36,5
0,1,1,1,0,1,0.7,-0.34,-0.38,452.4,1759.86,1459.87,5
0,1,1,1,0,1,0.91,0.34,-0.84,-2.17,718.59,594.35,5
0,1,1,1,0,1,0.83,-0.26,-0.76,-124.57,220.08,485.63,5
0,0,1,1,0,1,0.61,0.31,-0.9,303.61,-784.98,1292.5,5
1,0,1,1,0,1,0.96,0.79,-0.34,39.43,-1239.63,212.84,5
1,1,1,1,0,1,0.98,0.48,-0.08,196.18,-673.85,-1588.62,5
1,1,1,1,0,1,1.06,0.2,0.01,417.64,-284.7,-1457.14,5
1,1,1,1,0,1,0.97,-0.43,0,479.76,-252.43,-1764.21,5
0,1,0,1,0,1,0.7,-0.8,-0.21,-34.52,470.42,127.22,5
1,1,1,1,0,1,1.11,-0.47,-0.03,64.94,-56.81,707.81,5
1,1,1,1,0,1,0.83,-0.21,-0.14,-184.68,203.1,2630.38,5
1,1,1,1,0,1,1.01,0.76,-0.16,25.51,51.98,1657.51,5
1,0,1,1,0,1,0.95,0.55,-0.18,-80.39,-16.58,154.66,5
1,0,1,1,0,1,1.05,0.78,-0.15,86.34,234.65,-1566.82,5
1,1,1,1,0,1,0.65,-0.31,-0.48,91.65,28,-2335.46,5
0,1,1,1,0,1,1.02,-0.34,-0.22,201.17,-694.05,-507.76,5
1,1,1,1,0,1,1.11,-0.25,0.03,-228.53,-972.87,-1497.45,5
0,1,0,1,0,1,0.59,-0.89,-0.05,-291.54,91.73,258.79,5
1,1,1,1,0,1,0.86,-0.34,0.34,482.17,628.46,1148.06,5
0,1,1,1,0,1,0.81,-0.08,-0.74,200.53,-660.41,506.63,5
1,1,1,1,0,1,0.91,-0.23,0.68,-165.53,-2093.81,-169.47,5
1,1,1,1,0,1,0.91,-0.35,0.63,-113.46,-276.89,398.16,5
1,1,1,1,0,1,0.87,-0.09,0.52,-957.42,499.39,1081.43,5
1,1,1,1,0,1,0.9,0.26,0.29,-1100.42,791.5,1160.21,5
1,1,1,1,0,1,1,0.44,0.19,-290.49,134.38,7.64,5
1,1,1,1,0,1,1.1,0.46,0.5,1100.34,249.62,-1649.46,5
1,1,1,1,0,1,0.83,-0.31,-0.02,802.2,248.41,-1352.29,5
1,1,1,1,0,1,0.93,-0.45,0.12,281.8,572.78,451.59,5
1,1,1,1,0,1,0.9,-0.21,-0.05,-107.1,834.63,1306.9,5
1,1,1,1,0,1,1.13,0.31,-0.29,-119.26,119.58,963.06,5
1,1,1,1,0,1,1,0.08,-0.29,-294.12,-323.65,1239.55,5
1,0,1,1,0,1,0.61,0.71,-0.27,-131.73,-948.65,1532.86,5
1,0,1,1,1,0,0.91,0.88,0.12,841.55,-624.84,-273.03,5
1,1,1,1,0,1,0.83,0.54,-0.01,904.23,-738.63,-1374.74,5
1,1,1,1,0,1,0.85,0.1,0.56,503.66,-912.68,-887.58,5
1,1,1,1,1,0,0.88,0.02,0.83,844.28,237.87,-750.7,5
1,1,1,1,0,1,0.91,-0.03,0.44,730.98,1370.87,-554.59,5
1,1,1,1,0,1,0.85,-0.46,-0.11,236.26,988,44.82,5
1,1,1,1,0,1,0.93,-0.29,0,-369.6,550.73,1174.13,5
1,1,1,1,0,1,0.94,0.25,-0.31,-712.56,-44.9,1637.95,5
1,1,1,1,0,1,0.99,0.47,-0.07,-481.05,-66.87,1020.43,5
1,1,1,1,0,1,0.99,0.81,-0.09,12.63,198.44,373.86,5
1,0,1,1,0,1,0.79,0.83,-0.06,397.84,405.08,-2327.33,5
1,1,1,1,0,1,0.72,-0.46,-0.34,214.21,-162.15,-1540.34,5
1,1,1,1,0,1,1.19,0.16,-0.19,193.21,-0.56,-672.8,5
1,1,1,1,0,1,0.78,-0.28,-0.14,77.65,-877.92,-2328.78,5
0,1,0,1,0,1,0.5,-1.43,0.32,157.08,377.48,-614.3,5
0,1,0,1,0,1,0.59,-0.76,-0.1,398.32,531.02,1809.67,5
1,1,1,1,0,1,0.83,0.02,-0.35,230.14,678.84,2067.5,5
1,1,1,1,0,1,1.25,0.35,0.01,86.5,1306.5,380.62,5
1,1,1,1,0,1,0.77,0.01,-1.13,39.99,594.91,-196.75,5
0,1,1,1,0,1,0.98,-0.26,-0.63,112.82,-398.16,722.29,5
1,1,1,1,0,1,0.75,0.36,-0.42,77.73,-1210.42,1634.65,5
1,0,1,1,0,1,0.93,0.71,-0.16,117.97,-733.96,622.67,5
1,0,1,1,0,1,0.92,0.71,-0.24,370.4,-202.38,-1572.69,5
1,1,1,1,0,1,0.86,-0.03,0,220.49,585.49,-1815.87,5
1,1,1,1,0,1,1.07,-0.1,-0.5,183.79,308.68,-580.26,5
0,1,1,1,0,1,0.95,-0.2,-0.57,214.61,-773.79,-1023.41,5
0,1,1,1,0,1,0.73,-0.69,-0.04,-48.2,-1667.16,-378.45,5
1,1,1,1,0,1,0.72,-0.45,0.42,-626.29,-846.46,1237.13,5
1,1,1,1,0,1,0.8,0.19,0.43,-695.09,-436.79,1916.13,5
1,1,1,1,0,1,1.06,0.53,0.32,85.14,-66.23,388.83,5
1,1,1,1,0,1,0.63,0.15,0.17,665.88,-1012.06,-1167.13,5
1,1,1,1,1,0,0.83,-0.02,1.11,602.15,398.64,-740.24,5
1,1,1,1,1,1,0.9,-0.07,0.9,622.91,1042,-293.39,5
1,1,1,1,0,1,0.83,-0.23,0,869.79,1271.25,-957.66,5
0,1,1,1,0,1,0.71,-0.66,-0.22,74.03,499.31,-82.48,5
0,1,1,1,0,1,0.69,-0.47,-0.05,-614.38,422.46,1561.51,5
1,1,1,1,0,1,1.11,0.22,-0.09,-155.71,-82.72,1119.65,5
1,1,1,1,0,1,0.95,-0.12,0.02,-623.72,-117.16,1287.91,5
1,1,1,1,0,1,0.82,0.67,-0.06,-747.16,-168.1,1804.36,5
1,0,1,1,0,0,1.06,1.01,0.05,166.09,312.14,-552.5,5
1,1,1,1,0,1,0.75,0.22,-0.11,480.32,1168.66,-2078.84,5
1,1,1,1,0,1,1.02,0.2,-0.31,30.82,333.22,-552.18,5
1,1,1,1,0,1,0.95,0.05,-0.15,436.38,642.39,-1986.3,5
0,1,0,1,0,1,0.53,-1.12,-0.54,164.32,835.35,348.11,5
0,1,1,1,0,1,0.71,0.05,-0.74,400.74,333.79,2283.8,5
1,0,1,1,0,1,0.91,0.63,-0.51,150.32,-819.02,967,5
1,1,1,1,0,1,0.88,0.44,-0.56,105.5,-192.16,-178.72,5
1,1,1,1,0,1,0.91,0.31,-0.38,143.48,-878.56,-1308.19,5
1,1,1,1,0,1,1.11,-0.05,0.18,306.19,-529.73,-1528.84,5
1,1,1,1,0,1,0.98,-0.46,-0.06,428.34,-262.89,-1256.77,5
0,1,0,1,0,1,0.75,-0.69,-0.25,-168.66,203.1,524.82,5
1,1,1,1,0,1,1.09,-0.02,-0.02,251.14,-1444.18,259.84,5
1,1,1,1,0,1,0.81,-0.54,0.1,234.65,-514.12,-385.85,5
1,1,0,1,0,1,0.83,-0.52,0.34,-975.85,-824.33,1161.01,5
1,1,1,1,0,1,0.98,0.04,0.49,-694.29,-402.67,1304.49,5
1,1,1,1,0,1,0.86,0.15,0.2,-795.84,143.24,700.89,5
1,1,1,1,0,1,0.68,0.4,0.19,-651.32,-1215.81,886.29,5
1,1,1,1,1,0,0.74,0.46,0.83,1654.61,-108.15,-1129.95,5
1,1,1,1,1,0,0.68,-0.04,0.81,1138.32,817.97,-1072.01,5
1,1,1,1,0,1,0.77,-0.25,0.37,420.05,1090.6,-149.91,5
1,1,1,1,0,1,0.82,-0.47,-0.08,-479.44,688.66,818.45,5
1,1,1,1,0,1,0.93,0.28,0.03,-602.07,23.26,1397.35,5
1,1,1,1,0,1,1.07,0.57,0.09,-250.1,-129.07,229.5,5
1,1,1,1,0,0,0.93,0.34,0.24,969.09,411.36,-1861.66,5
1,1,1,1,0,1,0.84,-0.41,0.18,819.42,608.03,-2193.67,5
0,1,1,1,0,1,0.91,-0.67,0.13,217.99,478.87,-1256.61,5
0,1,0,1,0,1,0.73,-0.96,-0.13,-68.48,446.93,816.12,5
0,1,1,1,0,1,0.81,-0.28,-0.25,-114.43,79.91,2017.2,5
1,1,1,1,0,1,1.09,0.02,-0.04,-39.11,-380.22,1511.86,5
1,1,1,1,0,1,0.85,0.35,0.04,-231.75,-495.45,2305.93,5
1,0,1,1,1,0,1.11,1.21,-0.05,-283.25,58.74,727.36,5
