tVal2,tVal3,tVal4,tVal5,tVal6,tVal7,ax,ay,az,gx,gy,gz,face
1,0,1,1,1,1,0.07,-1.00,-0.11,-1980.44,2483.90,-7010.27,0
1,0,1,1,1,1,0.05,-0.96,-0.09,11861.14,3245.05,706.28,0
0,0,1,1,1,1,-0.09,-1.31,-0.44,5368.65,4788.84,7167.75,0
1,0,1,1,1,1,0.18,-0.99,-0.23,-16836.10,-16239.58,2371.75,0
1,0,1,1,1,1,-0.01,-0.78,0.34,-15199.25,15962.79,-13004.07,0
1,0,1,1,1,1,0.26,-1.10,-0.19,-2942.02,-22717.75,30913.90,0
1,0,1,1,0,1,0.32,-0.93,0.10,25786.24,10522.56,-28642.36,0
1,0,0,1,1,1,-0.12,-1.05,-0.31,25519.00,26480.58,9479.85,3
1,0,1,1,1,1,0.49,-0.92,-0.26,-15237.43,-38847.57,10243.39,0
1,0,1,1,0,0,0.14,-0.97,0.21,1818.18,3319.02,-39379.67,6
1,0,0,1,1,1,-0.15,-1.02,-0.35,34607.53,22524.48,28733.03,3
1,0,1,1,1,1,0.44,-0.96,-0.39,-8957.30,-8420.43,-3808.16,0
1,0,0,1,1,1,-0.07,-1.02,-0.24,-31751.41,-37900.30,665.71,3
1,0,1,1,1,1,0.28,-0.91,0.12,10288.73,2021.00,26342.19,0
1,0,1,1,0,1,0.39,-0.95,-0.12,11224.06,14714.88,-7649.73,0
1,0,1,1,1,1,0.26,-1.03,-0.23,1505.61,7038.90,-8537.35,0
1,0,1,1,1,1,-0.08,-1.04,-0.05,20324.53,18876.18,1157.24,0
0,0,1,1,1,1,0.39,-0.94,-0.31,-28053.00,-38019.61,27783.38,0
1,0,1,1,0,0,0.47,-0.86,0.22,10649.02,-2324.03,-16120.28,6
1,0,1,1,1,1,0.29,-1.01,-0.29,28513.51,14683.86,5354.34,0
1,0,1,1,0,1,0.33,-0.94,-0.01,-12483.91,-7010.27,2436.18,0
1,0,1,1,1,1,0.41,-0.96,0.00,1023.62,-5757.58,4633.74,0
1,0,1,1,0,1,0.40,-0.94,0.01,706.28,-2326.42,-157.48,0
1,0,1,1,0,1,0.40,-0.92,0.01,7578.15,-6399.43,2822.72,0
1,0,1,1,0,1,0.46,-0.97,-0.09,7160.59,687.19,5068.01,0
1,0,1,1,0,1,0.41,-0.93,-0.02,1319.50,-4318.78,1250.30,0
1,0,1,1,0,1,0.45,-0.90,0.02,303.03,-3769.99,-3896.45,0
1,0,1,1,0,1,0.49,-0.89,0.05,837.51,2137.92,-4605.11,0
1,0,1,1,0,1,0.38,-0.96,0.08,816.04,1572.42,-2562.64,0
1,0,1,1,0,1,0.41,-0.96,-0.11,7411.13,-4430.93,-3214.03,0
1,0,1,1,0,0,0.03,-0.83,0.16,20009.57,54318.84,9415.42,6
1,0,1,1,1,1,0.46,-1.12,-0.27,-20169.43,-65294.75,-12240.53,0
1,0,1,1,0,0,0.15,-1.02,0.31,41481.79,43636.41,-45614.46,6
1,0,0,1,1,1,-0.17,-0.91,-0.48,44691.05,29093.33,19809.14,3
1,0,1,1,0,1,0.30,-0.95,-0.10,-27256.05,-24061.11,-20851.85,0
1,0,1,1,1,1,-0.38,-1.00,-0.30,41006.96,39389.21,3822.48,0
0,0,1,1,1,1,0.33,-0.94,-0.57,-38305.94,-39811.54,30033.44,0
1,0,1,1,0,1,0.47,-0.89,0.26,-9685.05,-12149.86,3443.10,0
1,0,1,1,1,1,0.33,-0.97,-0.13,1939.87,-17556.69,725.36,0
1,0,1,1,1,0,-0.05,-0.92,0.46,-9501.32,-1851.59,-9410.65,6
1,0,1,1,0,1,0.34,-0.97,0.09,3753.28,14395.15,18721.09,0
1,0,1,1,0,1,0.57,-0.92,0.05,3672.16,11722.75,1531.86,0
1,0,1,1,1,1,0.27,-0.93,-0.09,20031.04,21336.22,3741.35,0
1,0,1,1,0,1,0.42,-0.93,0.08,-19331.92,-44781.72,-18394.20,0
1,0,1,1,1,1,-0.04,-1.05,-0.09,50598.96,59260.39,-17117.65,0
0,0,1,1,1,1,0.18,-1.09,-0.70,377.00,-36645.23,34442.89,0
1,0,1,1,0,1,0.40,-0.89,0.02,-11159.64,-30451.00,1939.87,0
1,0,1,1,0,1,0.19,-0.88,0.13,27633.05,34798.41,-47062.80,0
1,0,0,1,1,1,-0.07,-1.05,-0.19,21398.26,18654.28,17857.33,3
1,0,1,1,1,1,0.49,-0.97,-0.26,-13922.71,-37678.40,25361.52,0
1,0,1,1,0,0,0.46,-0.75,0.39,8568.37,-15998.59,-18045.83,6
1,0,1,1,1,1,0.07,-1.09,-0.03,18632.80,10021.49,12538.79,0
1,0,1,1,0,1,0.41,-0.95,-0.25,17971.86,26814.63,12498.22,0
1,0,1,1,0,1,0.84,-0.71,-0.02,-12467.21,-46609.45,-9016.95,5
1,0,1,1,0,0,0.36,-0.75,0.37,26690.56,25335.27,-27566.24,6
1,0,1,1,1,1,-0.23,-1.12,-0.36,46561.73,64812.77,-41939.92,0
0,0,1,1,1,1,0.11,-1.03,-0.50,-21615.39,-44535.96,-6301.61,0
0,0,0,1,1,1,-0.29,-0.98,-0.05,-22615.15,-52159.45,5802.92,3
1,0,1,1,1,1,0.29,-0.86,0.21,-16301.62,7559.06,28291.61,0
1,0,1,1,0,1,0.42,-0.78,0.25,6203.78,31469.85,11312.35,0
1,0,1,1,0,1,0.61,-0.87,-0.20,24003.84,36330.27,-29355.79,0
1,0,1,1,1,1,-0.02,-0.94,-0.04,-9522.80,-34371.31,-37077.11,0
1,0,0,1,1,1,-0.21,-0.89,0.01,18293.98,24636.15,15697.94,3
1,0,1,1,1,1,0.20,-1.16,-0.57,23483.68,13879.76,7482.71,0
1,0,1,1,1,1,0.16,-0.88,-0.01,-34531.18,-66471.09,23373.92,0
1,0,1,1,1,0,0.16,-1.00,0.16,7222.63,23588.67,13295.17,6
1,0,1,1,0,1,0.80,-0.81,0.04,-2009.07,5182.54,7375.34,0
1,0,1,1,1,1,0.30,-0.88,-0.23,12538.79,34082.59,-46673.87,0
0,0,1,1,1,1,0.21,-1.03,-0.26,-30582.23,-47881.23,18814.15,0
1,0,1,1,0,1,0.19,-0.88,0.24,12868.06,45979.53,-38613.74,0
1,0,1,1,1,1,0.09,-1.04,-0.44,23066.12,-32266.80,31183.52,0
1,0,1,1,0,1,0.38,-1.00,-0.29,29938.00,78186.68,431.88,0
0,0,1,1,1,1,0.23,-0.98,-0.48,-42001.95,-43655.50,-27833.48,0
1,0,1,1,1,1,-0.13,-1.02,-0.09,16375.58,36399.47,-12262.00,0
1,0,1,1,1,1,0.25,-1.02,-0.21,-13820.11,-34104.07,30639.50,0
1,0,1,1,1,1,0.13,-0.96,0.10,3691.25,-18236.72,17096.18,0
1,0,1,1,0,1,0.65,-0.96,0.01,10944.89,29215.02,-20374.63,0
1,0,1,1,1,1,0.10,-1.02,-0.46,20975.92,12915.79,-12741.60,0
1,0,1,1,1,1,-0.16,-0.92,0.07,-24137.46,-41123.88,3655.46,0
1,0,1,1,0,1,0.44,-0.95,0.15,6082.09,11539.02,37442.18,0
1,0,1,1,0,1,0.63,-0.82,-0.03,13536.16,23023.17,-20112.17,0
1,0,1,1,1,1,0.39,-0.91,-0.22,17466.02,-10711.06,30326.92,0
1,0,1,1,0,1,0.66,-0.87,-0.28,-16020.06,-23734.22,-16172.77,0
1,0,1,1,0,1,0.18,-0.94,-0.00,21775.26,53872.64,-33560.05,0
1,0,1,1,1,1,0.05,-0.96,-0.45,14631.37,46342.21,-15227.89,0
1,0,0,1,1,1,-0.08,-0.95,-0.31,-36103.59,-51868.35,6251.50,3
1,0,0,1,1,0,-0.14,-0.99,0.05,5509.43,-29537.14,36991.21,6
1,0,1,1,0,1,0.58,-0.94,0.01,-5211.17,-32209.53,9334.30,0
1,0,1,1,1,0,-0.01,-0.93,-0.18,13810.56,-24149.39,-14395.15,6
1,0,1,1,1,1,-0.20,-1.09,-0.01,2507.76,-16688.16,14137.45,0
1,0,1,1,0,0,0.10,-0.97,0.44,18167.52,62436.24,-8787.89,6
1,0,1,1,1,1,0.06,-0.91,-0.00,-54268.73,-24936.80,-827.97,0
1,0,1,1,1,0,0.13,-0.93,0.23,53696.07,36389.92,2185.64,6
0,1,1,1,1,1,0.31,-1.14,-0.79,-5120.50,-6704.85,3619.67,0
1,0,1,1,1,1,0.16,-0.91,0.07,-41870.72,-7136.73,-1789.55,0
1,0,1,1,0,0,0.16,-0.78,0.44,22030.57,8804.59,-3326.18,6
1,0,1,1,1,1,0.22,-0.98,-0.07,56540.27,16230.03,-2197.57,0
0,0,1,1,1,1,0.32,-0.86,-0.79,7065.15,-12937.26,6845.63,0
0,0,1,1,1,1,0.42,-0.91,-0.47,-67847.84,-23271.32,-5938.92,0
1,0,1,1,0,1,0.42,-0.86,0.10,534.48,2483.90,-13581.50,0
1,0,1,1,1,1,0.49,-0.65,0.15,7740.40,-6420.91,50832.79,0
1,0,1,1,0,1,0.47,-0.81,0.05,1961.35,-18620.88,-68752.16,0
1,0,0,1,1,1,-0.40,-1.11,-0.16,22660.49,-8883.33,260.08,3
1,0,1,1,1,1,0.18,-1.02,0.01,-17747.57,-174.18,48274.93,0
1,0,1,1,0,1,0.49,-0.87,0.10,-6642.81,29534.75,-35910.32,0
1,0,1,1,1,1,0.12,-0.93,-0.25,21672.66,-959.20,-8880.95,0
1,0,1,1,1,1,0.16,-1.04,-0.22,-4793.61,-28561.23,15404.46,0
1,0,1,1,1,1,0.00,-1.03,0.15,-13204.50,-37554.32,-4903.37,0
1,0,1,1,1,1,0.23,-1.06,-0.17,1364.83,40959.24,12505.38,0
1,0,1,1,0,1,0.30,-0.69,0.46,-5227.88,-35719.44,-13891.69,0
1,0,1,1,1,1,-0.11,-0.95,-0.01,31701.30,63645.98,-21813.43,0
1,0,1,1,1,1,0.32,-1.05,-0.54,14118.36,-55394.95,48518.31,0
1,0,1,1,0,1,0.41,-0.70,0.19,4738.73,8947.75,16836.10,0
1,0,1,1,0,1,0.22,-0.98,-0.11,-17389.66,46876.69,-66366.09,0
1,0,1,1,1,0,-0.22,-0.90,-0.08,48709.19,18716.32,-20262.49,6
0,0,1,1,1,1,-0.11,-0.90,-0.67,3147.22,-38456.26,11729.91,0
1,0,1,1,1,1,0.18,-0.98,-0.35,-55986.70,-68814.20,-4810.31,0
1,0,1,1,1,0,-0.11,-0.97,0.22,-12560.26,1469.82,-28933.46,6
1,0,0,1,1,0,-0.21,-0.90,0.04,59739.98,55748.09,-16036.76,6
1,0,0,1,1,1,-0.43,-1.08,-0.19,-11128.62,-312.57,3953.71,3

1,0,1,1,1,1,-0.20,-1.06,-0.03,9878.32,-17392.05,30942.53,0
1,0,1,1,0,1,0.52,-0.83,0.06,-2429.02,-29451.24,26936.32,0
1,0,1,1,0,1,0.36,-0.92,0.06,5645.44,12820.34,-22242.93,0
1,0,1,1,0,1,0.74,-0.63,0.18,4044.39,-1288.48,37979.04,5
1,0,1,1,0,1,0.37,-0.83,0.01,-5657.37,32118.86,-57191.66,0
1,0,1,1,1,1,0.27,-1.05,-0.30,16084.48,11009.32,-14707.72,0
1,0,0,1,1,1,-0.28,-0.93,-0.05,-6950.62,-10720.60,617.99,3
1,0,1,1,1,0,-0.17,-0.97,0.16,6318.31,-21014.10,36332.66,6
1,0,1,1,0,1,0.47,-1.03,-0.08,12901.47,63354.88,-10083.52,0
1,0,1,1,1,1,0.26,-0.98,-0.04,-8620.86,-13848.74,-8172.28,0
1,0,1,1,1,1,0.22,-0.98,0.02,-935.34,-6459.09,-2574.57,0
1,0,1,1,1,1,0.13,-0.99,0.00,524.93,-2266.76,2075.88,0
1,0,1,1,1,1,0.22,-0.99,-0.04,1689.34,-2677.17,2106.90,0
1,0,1,1,1,1,0.24,-1.00,-0.02,2882.37,2514.92,615.61,0
1,0,1,1,1,1,0.20,-0.99,0.11,162.25,-1209.74,-42.95,0
1,0,1,1,1,1,0.19,-1.00,0.02,7375.34,9081.37,2502.99,0
1,0,1,1,1,1,0.58,-0.78,-0.06,-9026.50,-32934.90,44617.09,0
1,0,1,1,1,0,0.09,-1.05,0.08,13963.27,-6027.21,11278.94,6
1,0,1,1,0,1,0.91,-0.79,0.06,-1842.04,-7036.51,-31357.71,5
1,0,1,1,1,1,-0.43,-1.06,-0.10,35872.14,78186.68,-24426.18,0
0,0,1,1,1,1,0.18,-0.94,-0.43,-22001.93,-76943.53,-8876.17,0
1,0,1,1,1,0,-0.09,-0.99,0.13,8057.75,37463.65,-12968.28,6
1,0,1,1,1,1,0.11,-0.91,0.14,-12388.46,-64261.58,52176.15,0
1,0,1,1,0,1,0.54,-0.83,0.02,12324.04,78186.68,3371.51,0
1,0,1,1,1,1,0.13,-0.91,-0.07,-39969.02,34182.81,-61073.80,0
1,0,0,1,1,0,-0.51,-0.87,0.34,27800.08,-21954.21,12359.83,6
0,0,1,1,1,1,0.32,-0.92,-0.71,33612.54,9582.45,23190.20,0
0,0,1,1,1,1,0.34,-0.95,-0.54,-25783.85,-78184.29,15330.49,0
1,0,1,1,1,1,0.10,-0.79,-0.60,51006.98,63216.48,-6974.48,0
0,0,1,1,1,1,0.18,-0.97,-0.93,-64065.93,-41546.21,-4106.42,0
1,0,1,1,1,0,-0.11,-0.81,0.50,-36599.90,-6370.80,-7628.26,6
1,0,1,1,1,0,0.28,-0.75,0.22,13583.88,-1853.97,61615.43,6
1,0,1,1,0,1,0.73,-0.81,-0.15,20586.99,42777.43,-37258.45,0
1,0,1,1,1,1,0.12,-0.97,-0.38,3335.72,46850.45,-36330.27,0
1,0,0,1,1,1,-0.41,-0.89,-0.09,-15330.49,26261.06,-13937.02,3
1,0,0,1,1,1,-0.32,-0.98,-0.45,55731.39,4714.87,11653.56,3
0,0,1,1,1,1,0.23,-0.71,-0.93,21854.00,-49117.21,17594.87,1
1,0,1,1,1,1,0.44,-0.76,-0.52,-45590.60,-78184.29,-21505.63,0
1,0,1,1,1,1,0.01,-1.04,-0.17,9823.44,52715.40,-39028.91,0
1,0,1,1,1,1,-0.05,-0.93,-0.21,36008.15,52806.07,-14586.03,0
0,0,1,1,1,1,-0.02,-0.96,-0.71,15891.21,-47618.76,31018.88,0
1,0,1,1,1,1,0.31,-0.96,-0.26,-36559.33,-72233.44,10687.20,0
1,0,1,1,0,1,0.67,-0.73,0.18,20231.47,38544.54,-45781.49,0
1,0,0,1,1,0,-0.40,-1.02,0.02,26.25,8339.31,-20198.07,6
1,0,1,1,1,1,0.29,-0.87,-0.10,16020.06,-25929.40,78186.68,0
1,0,1,1,0,1,0.74,-0.59,-0.00,9785.26,11978.06,51133.44,5
1,0,1,1,0,1,0.65,-0.78,-0.20,-7590.08,34564.58,-57415.95,0
1,0,1,1,1,1,0.06,-1.20,-0.34,-24006.23,-42173.75,-5974.71,0
1,0,1,1,0,0,-0.08,-0.79,0.35,31834.92,17733.26,-4896.21,6
1,0,1,1,1,1,0.27,-0.93,-0.30,60000.07,27062.78,29909.36,0
0,0,1,1,1,1,0.22,-0.87,-0.71,-69456.05,582.20,-16972.10,0
1,0,1,1,1,1,-0.22,-1.03,-0.14,41589.16,59651.70,-26874.28,0
1,0,0,1,1,1,-0.26,-1.07,-0.20,7780.97,-30944.92,13991.90,3
0,0,1,1,1,1,-0.08,-0.74,-0.62,42188.07,-20675.28,26559.32,0
0,0,1,1,1,1,0.21,-0.83,-0.62,-48799.86,-75733.80,4595.57,0
1,0,1,1,1,1,-0.00,-1.09,-0.08,-16134.59,9427.35,-29255.58,0
1,0,1,1,1,0,-0.45,-0.96,0.10,27540.00,37807.25,558.34,6
1,0,1,1,1,1,0.12,-1.08,-0.39,29415.45,47656.94,-3851.11,0
0,0,1,1,1,1,0.13,-0.80,-0.46,16031.99,-47065.19,45328.13,0
1,0,1,1,0,1,0.44,-0.81,-0.12,-21073.75,-46626.16,-12164.17,0
1,0,1,1,1,1,0.31,-0.96,-0.08,4683.85,40606.11,-45411.64,0
1,0,1,1,1,1,-0.29,-0.99,-0.17,33901.25,66189.52,-19501.33,0
1,0,1,1,1,1,-0.32,-0.99,-0.06,-48735.44,-30107.41,2207.11,0
1,0,1,1,1,0,-0.02,-0.88,0.16,-11842.06,-56175.20,50551.24,6
1,0,1,1,0,1,0.21,-0.95,-0.11,30916.28,78186.68,-5936.54,0
0,0,1,1,1,1,0.05,-1.03,-0.40,-10799.34,44745.93,-43531.43,0
1,0,0,1,1,1,-0.22,-1.05,-0.33,-18680.53,-74044.46,41369.65,3
1,0,1,1,1,1,0.29,-1.03,-0.03,-4886.67,-39589.64,28041.07,0
1,0,1,1,0,1,0.77,-0.68,-0.40,15841.11,62121.28,4605.11,0
0,0,1,1,1,1,0.17,-0.98,-0.65,-5592.94,28208.10,-18093.55,0
1,0,1,1,1,1,-0.26,-0.92,-0.15,-43161.59,-13760.45,-2531.62,0
1,0,0,1,1,1,-0.04,-1.01,-0.26,68630.48,13505.14,300.64,3
1,0,1,1,1,1,0.17,-0.76,-0.38,-78184.29,-57418.34,405.63,0
1,0,1,1,1,0,-0.04,-0.95,0.50,15550.00,-7191.61,-5853.02,6
1,0,1,1,1,1,-0.09,-0.91,-0.22,78186.68,21565.28,6361.26,0
0,0,1,1,1,1,0.26,-0.91,-0.72,-78184.29,-58594.67,-13874.99,0
1,0,1,1,1,0,-0.22,-0.86,0.53,-12123.61,-8048.21,4168.46,6
1,0,1,1,1,1,0.35,-0.78,0.11,19456.00,30904.35,39477.50,0
1,0,1,1,0,1,0.76,-0.95,-0.20,9360.54,28639.97,-29253.19,0
1,0,1,1,1,1,-0.02,-0.98,-0.03,19391.57,55862.62,-38387.06,0
0,0,1,1,1,1,-0.02,-1.06,-0.47,-61982.89,-25158.70,-5442.62,0
1,0,1,1,1,0,-0.20,-0.98,0.29,27721.34,-18370.34,33960.91,6
1,0,1,1,0,1,0.48,-0.74,-0.07,20849.46,3027.92,45931.81,0
0,0,1,1,1,1,0.05,-1.00,-0.40,-12044.87,78186.68,-38024.38,0
1,0,1,1,1,1,-0.10,-0.87,-0.11,-29685.07,-78184.29,2529.23,0
1,0,1,1,1,1,0.10,-1.15,-0.26,-17339.56,-48494.45,16664.30,0
1,0,1,1,0,1,0.25,-1.09,-0.18,-8876.17,51412.61,-21961.37,0
1,0,1,1,1,0,-0.11,-0.79,0.24,-33.40,28756.89,-44359.39,6
1,0,0,1,1,1,-0.22,-1.24,-0.10,27289.46,-6807.45,45278.03,3
1,0,1,1,0,1,0.49,-0.65,-0.13,22347.91,-47229.83,45497.54,0
1,0,1,1,0,1,0.27,-0.94,0.13,-15559.55,-67931.36,-20672.89,0
1,0,1,1,0,0,0.08,-0.81,0.65,-2999.29,5077.55,-22918.18,6
1,0,1,1,1,1,0.15,-1.09,-0.24,56926.81,22977.83,8959.69,0
0,0,1,1,1,1,0.16,-0.89,-0.45,34161.34,15676.47,17990.95,0
0,0,1,1,1,1,0.33,-0.90,-0.57,-59911.78,-15437.86,-21376.78,0
1,0,1,1,1,1,0.20,-0.86,0.19,11534.25,1839.66,7337.16,0
1,0,1,1,1,1,0.29,-0.82,0.15,-19188.76,-3175.86,54409.51,0
1,0,1,1,0,1,0.62,-0.70,-0.16,12199.97,14745.90,-16998.35,0
1,0,1,1,1,1,0.11,-1.18,-0.27,28690.08,-13517.08,-46327.89,0
0,0,1,1,1,1,0.02,-0.91,-0.46,7575.77,40532.14,-3183.01,0
1,0,1,1,1,1,0.40,-0.70,-0.44,11309.96,-56096.46,51059.47,0
0,0,1,1,0,1,0.70,-0.76,-0.45,-28339.33,-35717.05,-14693.41,1
1,0,1,1,0,1,0.15,-0.98,-0.11,11629.70,44994.09,-58981.21,0
0,0,1,1,1,1,0.17,-1.00,-0.26,-7850.16,-10522.56,107.37,0
0,0,1,1,1,1,0.13,-1.02,-0.28,5857.80,3278.46,1097.59,0
1,0,1,1,1,1,0.10,-0.96,-0.51,17738.03,8723.46,3180.63,0
0,0,1,1,1,1,0.11,-0.94,-0.59,-3187.79,-3684.09,9978.54,0
0,0,1,1,1,1,0.54,-0.82,-0.42,7597.24,-6115.49,17036.53,0
1,0,1,1,1,1,0.25,-0.81,-0.16,-39625.43,-37205.96,-17964.71,0
1,0,1,1,1,1,0.06,-1.13,-0.07,33135.33,11670.26,-7998.10,0
0,0,1,1,1,1,0.18,-0.91,-0.48,8911.96,2331.19,5380.58,0
0,0,1,1,1,1,0.06,-1.00,-0.43,5626.35,4070.63,1710.81,0
0,0,1,1,1,1,0.30,-0.84,-0.77,-6263.43,-58869.07,3288.00,0
1,0,1,1,1,1,0.07,-1.07,-0.14,-6845.63,55748.09,-7563.84,0
1,0,0,1,1,1,0.08,-0.95,-0.46,32715.38,-26969.73,7382.49,0
0,0,1,1,1,1,0.19,-0.90,-0.50,-8360.78,38673.39,10577.44,0
0,0,1,1,1,1,0.39,-0.82,-0.84,8470.54,-34022.95,-498.69,1
1,0,1,1,0,1,0.33,-0.98,-0.32,-22650.94,21305.20,-4154.14,0
1,0,1,1,1,1,0.30,-0.92,-0.48,45869.77,-22696.28,-3347.65,0
1,0,1,1,0,1,0.55,-0.97,-0.07,-6003.35,-70102.68,-9782.88,0

1,0,1,1,1,1,0.16,-0.91,0.04,-16280.14,8119.79,-20231.47,0
1,0,1,1,1,1,0.18,-1.05,0.02,33061.36,40474.87,6280.13,0
1,0,1,1,1,1,0.41,-0.87,-0.42,19813.91,-17606.79,2350.28,0
1,0,1,1,1,1,0.08,-1.11,-0.10,-27699.86,65960.46,-10489.16,0
1,0,1,1,1,1,-0.01,-0.96,-0.38,45972.37,27628.28,11784.79,0
0,0,1,1,1,1,0.18,-0.86,-0.89,-496.30,-20999.79,1670.25,1
1,0,1,1,1,1,0.14,-0.85,-0.15,-17859.72,-64991.72,-18869.03,0
1,0,1,1,1,1,-0.19,-0.97,-0.10,6564.07,78186.68,-708.66,0
1,0,0,1,1,1,-0.09,-0.98,-0.45,18370.34,434.26,-6368.42,3
1,0,1,1,1,1,-0.05,-0.97,-0.37,-28508.74,-78184.29,-23080.44,0
1,0,1,1,1,1,-0.17,-1.09,-0.15,1224.05,77869.33,-10314.97,0
1,0,0,1,1,1,0.07,-0.93,-0.33,29002.66,17544.76,15001.21,0
0,0,1,1,1,1,0.03,-0.95,-0.41,-10541.65,-47850.21,-5304.23,0
0,0,1,1,1,1,0.06,-1.01,-0.37,9207.84,2190.41,1049.87,0
0,0,1,1,1,1,0.11,-0.99,-0.36,6511.58,14180.40,3762.83,0
0,0,1,1,1,1,0.06,-0.97,-0.45,4855.65,-7308.53,3025.53,0
0,0,1,1,1,1,0.24,-0.88,-0.61,3357.20,-14745.90,8229.55,0
0,0,1,1,1,1,0.34,-0.95,-0.56,3447.87,-7578.15,-1865.91,0
0,0,1,1,1,1,0.32,-0.97,-0.50,2665.24,-5915.06,3354.81,0
0,0,1,1,1,1,0.38,-0.88,-0.50,-1813.41,-6862.33,200.43,0
0,0,1,1,1,1,0.51,-0.91,-0.52,2808.40,-13061.34,477.21,0
0,0,1,1,1,1,0.39,-0.85,-0.40,3497.98,-3607.73,-4755.43,0
0,0,1,1,1,1,0.35,-0.87,-0.34,1639.23,-2393.23,-2541.16,0
0,0,1,1,1,1,0.35,-0.90,-0.38,-1844.43,2684.33,1128.61,0
0,0,1,1,1,1,0.37,-0.91,-0.49,2357.44,6246.73,3447.87,0
0,0,1,1,1,1,0.46,-0.91,-0.44,-515.39,6370.80,1982.82,0
0,0,1,1,1,1,0.43,-0.85,-0.44,252.92,4889.05,1047.48,0
0,0,1,1,1,1,0.46,-0.92,-0.50,1842.04,-21.47,1493.68,0
0,0,1,1,1,1,0.43,-0.85,-0.47,-324.51,3385.83,-1371.99,0
0,0,1,1,1,1,0.44,-0.90,-0.43,3199.72,1343.36,-143.16,0
0,0,1,1,1,1,0.36,-0.91,-0.41,-2727.28,3941.78,-6408.98,0
0,0,1,1,1,1,0.29,-0.92,-0.45,-1111.91,-8754.48,-11424.49,0
0,0,1,1,1,1,0.25,-0.88,-0.51,916.25,-3447.87,-8317.83,0
0,0,1,1,1,1,0.20,-1.00,-0.23,-3908.38,-544.02,-4545.46,0
0,0,1,1,1,1,-0.00,-0.95,-0.34,-2493.44,-6709.62,861.37,0
0,0,1,1,1,1,0.16,-1.04,-0.20,3538.54,2965.88,7874.02,0
1,0,1,1,1,1,0.02,-1.02,-0.05,-4242.43,-1049.87,-5686.00,0
1,0,1,1,1,1,0.16,-1.00,-0.09,-1581.96,-104.99,-1658.32,0
1,0,1,1,1,1,0.22,-1.01,-0.11,2732.05,3636.37,1264.62,0
1,0,1,1,1,1,0.23,-1.00,-0.18,6177.53,-1298.02,2553.09,0
0,0,1,1,1,1,0.24,-0.99,-0.26,419.95,-1748.99,-2250.06,0
1,0,1,1,1,1,0.19,-1.02,-0.13,-968.74,-1815.80,-496.30,0
1,0,1,1,1,1,0.19,-1.00,-0.14,3025.53,1004.53,231.45,0
1,0,1,1,1,1,0.20,-1.00,-0.16,1842.04,76.35,-381.77,0
1,0,1,1,1,1,0.15,-1.02,-0.18,2619.90,-5130.05,-162.25,0
1,0,1,1,1,1,0.14,-1.03,-0.11,-2920.55,-8181.83,-6325.47,0
1,0,1,1,1,1,0.11,-1.10,-0.05,5922.22,-1021.24,-6957.77,0
0,0,1,1,1,1,0.33,-1.05,-0.49,17179.69,7735.63,26265.84,0
1,0,1,1,1,1,0.16,-0.86,-0.10,-33383.48,-31276.58,-32605.62,0
1,0,0,1,1,1,-0.11,-1.10,-0.30,19899.81,17315.70,23118.61,3
1,0,1,1,0,1,0.45,-0.82,-0.00,16065.40,18100.71,49389.22,0
0,0,1,1,1,1,0.43,-0.96,-0.57,-30916.28,-29594.40,-57854.99,0
1,0,1,1,1,1,-0.05,-1.03,0.18,3242.67,-3874.97,48227.21,0
1,0,1,1,0,1,0.79,-0.70,-0.26,10107.38,24958.27,28415.68,5
1,0,1,1,0,1,0.41,-0.99,-0.24,4478.65,39856.88,-64812.77,0
0,0,1,1,1,1,0.14,-0.96,-0.22,-25373.45,-28971.64,-40608.49,0
1,0,0,1,1,1,-0.33,-0.99,0.09,16902.91,22519.71,-396.09,3
1,0,0,1,1,1,-0.16,-1.08,-0.38,39697.01,26754.98,3099.50,3
0,0,1,1,1,1,-0.08,-0.80,-0.42,-28503.97,-57003.16,-21739.46,0
1,0,0,1,1,1,-0.31,-0.89,-0.20,5817.23,22018.63,-10419.96,3
1,0,0,1,1,1,-0.24,-0.98,-0.49,-29262.74,-63665.07,7096.17,3
1,0,1,1,1,1,0.20,-1.03,-0.15,13963.27,23438.35,-26194.25,0
1,0,0,1,1,1,-0.38,-0.84,-0.47,42030.59,5368.65,22417.11,3
0,0,1,1,1,1,0.31,-0.90,-0.41,-16459.10,-47456.51,45380.63,0
1,0,1,1,0,1,0.66,-0.80,-0.31,-16871.89,-16432.85,-8353.62,0
1,0,1,1,0,1,0.35,-0.94,0.13,-2235.75,12302.57,-39358.19,0
1,0,1,1,1,1,-0.18,-0.98,-0.57,23925.10,42200.00,5029.83,0
1,0,1,1,1,1,0.38,-0.88,-0.22,-18179.45,-68907.26,26261.06,0
1,0,1,1,0,1,0.49,-0.87,0.07,18838.01,17473.18,-50121.75,0
0,0,1,1,1,1,0.03,-1.01,-0.28,20231.47,3392.99,14259.14,0
0,0,1,1,1,1,0.31,-0.84,-0.56,8876.17,-17936.07,25542.86,0
0,0,1,1,1,1,0.17,-0.87,-0.37,-30269.66,-5161.06,-63180.70,0
1,0,0,1,1,1,-0.31,-1.03,0.27,-796.95,-472.44,-3025.53,3
1,0,0,1,1,1,-0.24,-0.96,-0.37,47069.96,44485.85,13500.37,3
1,0,1,1,1,1,0.06,-0.93,-0.18,-14139.84,-51780.06,37936.09,0
0,0,1,1,1,1,0.58,-0.82,-0.57,-19126.72,-34168.49,-15946.09,0
1,0,1,1,0,0,0.09,-0.94,0.35,11345.75,-1710.81,-30799.37,6
1,0,1,1,1,1,-0.33,-1.11,-0.43,35585.82,77158.28,16814.62,0
0,0,1,1,1,1,0.01,-1.11,-0.58,-250.54,-7890.73,14512.07,0
1,0,1,1,0,1,0.59,-0.62,-0.32,13715.12,-19102.86,26984.04,0
1,0,1,1,1,1,0.20,-0.99,-0.10,-35616.84,-29930.84,-60935.41,0
1,0,0,1,1,1,-0.29,-1.08,-0.19,39828.25,18325.00,615.61,3
1,0,0,1,1,1,-0.19,-0.88,-0.59,45497.54,13070.88,7442.15,3
1,0,1,1,1,1,0.27,-0.81,-0.24,-64655.29,-75583.48,10071.59,0
1,0,1,1,1,1,0.14,-0.96,-0.13,64388.05,46413.79,18272.51,0
0,0,1,1,1,1,0.40,-1.08,-0.52,-42534.05,-25728.97,-8091.16,0
1,0,1,1,0,1,0.19,-0.86,0.28,4982.11,-7136.73,-6275.36,0
1,0,1,1,1,1,0.21,-1.04,-0.47,50183.78,70766.01,5807.69,0
0,0,1,1,1,1,0.38,-0.72,-0.65,14251.98,-39961.87,23808.19,1
0,0,1,1,1,1,0.37,-0.80,-0.45,-45674.11,-24540.71,-52278.75,0
1,0,1,1,1,1,-0.05,-1.03,0.18,-8105.47,-49534.77,-24404.70,0
1,0,1,1,1,1,-0.25,-0.97,-0.57,24905.78,63669.84,4998.81,0
0,0,1,1,1,1,0.04,-1.05,-0.37,-10916.26,-30131.27,25442.64,0
1,0,1,1,0,1,0.38,-0.95,-0.22,-18224.79,-19458.38,15802.93,0
1,0,1,1,0,1,0.62,-0.69,-0.37,55791.04,78186.68,21269.41,0
0,0,1,1,1,1,0.42,-0.98,-0.60,-25215.97,-47692.73,-57048.50,0
0,0,1,1,1,1,-0.37,-1.09,-0.27,-22815.58,-13801.02,-10656.18,0
1,0,1,1,1,1,0.35,-0.76,-0.18,-21579.60,12207.12,48795.09,0
1,0,1,1,1,1,0.44,-1.00,-0.17,27590.10,33495.62,-5428.30,0
0,0,1,1,1,1,0.13,-1.05,-0.57,-34187.58,-63612.57,-43204.54,0
1,0,1,1,1,1,0.02,-0.97,-0.13,4354.57,59255.61,16117.89,0
1,0,1,1,1,1,0.50,-0.83,-0.23,20317.37,-10322.13,39076.64,0
1,0,1,1,0,1,0.38,-0.85,-0.02,-12500.61,-23863.07,-58885.77,0
1,0,1,1,1,1,-0.26,-1.10,-0.53,43502.79,70913.94,22445.74,0
0,0,1,1,1,1,0.23,-0.91,-0.50,-11825.35,-44831.83,25764.76,0
1,0,1,1,0,1,0.73,-0.80,-0.46,-15511.83,-3340.50,-13319.03,0
1,0,1,1,1,1,0.04,-0.92,0.32,-33039.88,-48169.94,-17654.52,0
1,0,1,1,1,1,0.24,-1.11,-0.18,45039.42,52097.41,36222.90,0
1,0,1,1,0,1,0.94,-0.60,-0.42,7380.11,-12087.82,4249.59,5
1,0,1,1,0,1,0.60,-0.81,-0.14,13622.06,41565.30,-33638.79,0
0,0,1,1,1,1,0.37,-0.99,-0.65,-18005.27,-42717.78,-32324.06,0
1,0,0,1,1,1,-0.37,-1.02,0.13,-30651.43,-31615.40,6182.30,3
1,0,1,1,0,1,0.55,-0.89,0.16,20780.27,70937.80,34185.20,0
0,0,1,1,1,1,0.75,-0.80,-0.48,10257.71,548.80,35242.22,1
1,0,1,1,0,1,0.46,-0.77,-0.11,-33280.87,-76707.31,-38656.69,0
1,0,1,1,0,1,0.41,-0.85,0.21,7198.77,40582.25,39491.81,0
1,0,1,1,0,1,0.81,-0.64,-0.26,19625.41,47525.70,1944.65,5
0,0,1,1,1,1,0.26,-0.86,-0.45,-20097.85,-3486.05,-78184.29,0
1,0,1,1,1,1,-0.10,-1.02,-0.37,-33314.28,-48086.43,-27704.63,0
1,0,0,1,1,1,-0.43,-0.98,-0.24,34846.14,61698.95,10026.26,3

1,0,0,1,1,1,0.06,-0.98,-0.53,27227.42,901.93,37413.55,0
1,0,1,1,0,1,0.35,-0.92,-0.15,-5204.01,-14046.78,-42259.65,0
1,0,0,1,1,1,-0.44,-1.10,-0.20,-24065.88,-7241.72,-20326.91,3
1,0,0,1,1,1,-0.38,-0.88,-0.08,14776.92,5592.94,10326.90,3
1,0,1,1,1,1,0.23,-0.79,-0.16,-12147.47,-25535.70,48162.78,0
1,0,1,1,0,1,0.19,-0.64,0.26,35027.48,46511.62,-78184.29,0
1,0,0,1,1,1,-0.31,-0.90,-0.28,10269.64,3994.28,8224.78,3
0,0,1,1,1,1,-0.11,-0.96,-0.41,-10286.34,-21026.03,56573.67,0
1,0,1,1,1,1,0.24,-0.97,-0.09,4979.72,12684.34,-20799.36,0
0,0,1,1,1,1,-0.49,-1.11,-0.56,-9019.34,2359.82,-20429.51,0
1,0,0,1,1,1,-0.14,-0.97,-0.13,-2949.18,15359.12,-11166.80,3
1,0,0,1,1,0,-0.35,-0.99,0.03,9346.23,4640.90,36998.37,6
1,0,1,1,0,1,0.44,-0.99,-0.07,-22791.72,-27518.52,2293.01,0
1,0,1,1,1,0,-0.10,-0.83,0.10,67726.16,7938.45,-4862.81,6
0,0,1,1,1,1,-0.16,-1.08,-0.69,1801.48,8305.90,8394.19,0
1,0,1,1,1,1,0.13,-0.98,-0.11,-48356.05,-22431.43,17563.85,0
1,0,1,1,1,0,-0.41,-0.83,0.57,6525.90,-3822.48,17303.77,6
1,0,1,1,0,1,0.54,-0.88,-0.02,12565.03,17990.95,19451.23,0
1,0,1,1,1,1,0.41,-0.97,-0.40,13058.95,32314.52,-32942.05,0
1,0,0,1,1,1,-0.15,-1.09,-0.30,-33891.71,-24645.70,-24476.29,3
1,0,0,1,1,0,-0.37,-0.81,0.23,-14769.76,-6616.57,33311.89,6
1,0,1,1,1,1,0.36,-1.09,0.09,6003.35,9990.47,17449.31,0
1,0,1,1,1,1,0.24,-1.07,-0.33,37573.41,38100.73,-7630.65,0
0,0,1,1,1,1,0.29,-1.01,-0.37,-20603.70,-24595.59,38666.23,0
1,0,1,1,0,1,0.40,-0.85,0.06,-22791.72,-26542.62,-18165.13,0
1,0,1,1,1,1,0.25,-1.08,-0.06,35521.39,22689.12,-22896.71,0
1,0,1,1,1,1,0.26,-1.02,-0.30,9050.36,6580.78,9083.76,0
0,0,1,1,1,1,0.09,-1.00,-0.39,-708.66,-3638.75,-1522.31,0
0,0,1,1,1,1,0.15,-0.99,-0.33,3932.24,3304.70,863.76,0
1,0,1,1,1,1,0.12,-0.99,-0.22,1142.93,-890.00,1374.38,0
0,0,1,1,1,1,0.14,-1.04,-0.24,4676.69,-109.76,517.78,0
0,0,1,1,1,1,0.16,-1.00,-0.24,586.97,-2677.17,-610.83,0
0,0,1,1,1,1,0.14,-1.01,-0.27,2314.49,-1407.78,276.78,0
0,0,1,1,1,1,0.20,-0.98,-0.29,4910.53,1765.69,-5382.97,0
0,0,1,1,1,1,0.10,-1.14,-0.38,-5588.17,-3276.07,14240.05,0
1,0,1,1,0,1,0.53,-0.81,0.13,-16036.76,-27962.33,-16926.77,0
1,0,1,1,1,0,-0.07,-0.98,0.30,36638.07,9823.44,-32526.88,6
1,0,1,1,1,1,0.04,-1.05,-0.37,23901.24,25113.37,36397.08,0
1,0,1,1,0,1,0.66,-0.84,-0.22,-13409.70,-31341.00,10377.01,0
1,0,1,1,1,1,0.24,-1.01,0.02,-13827.26,-7804.83,-33648.33,0
1,0,0,1,1,0,-0.38,-0.88,0.19,21834.91,-7368.18,-23273.71,6
1,0,0,1,1,1,0.01,-1.14,-0.16,-19785.28,-95.44,39615.89,0
1,0,1,1,0,0,-0.01,-0.74,0.47,-18126.96,-17017.44,5416.37,6
1,0,1,1,0,1,0.52,-0.93,-0.03,33588.68,33755.70,14063.48,0
0,0,1,1,1,1,0.38,-1.08,-0.38,4430.93,11503.23,-38962.11,0
1,0,0,1,1,1,-0.26,-1.01,-0.02,-36249.14,-27788.15,-10777.87,3
1,0,1,1,1,0,-0.18,-0.72,0.17,47528.09,16048.69,-7735.63,6
0,0,0,1,1,1,-0.14,-1.02,-0.40,18320.23,20785.04,20136.03,3
0,0,1,1,1,1,0.17,-0.81,-0.14,-22937.27,-19842.54,46542.64,0
1,0,1,1,1,1,0.23,-0.94,0.04,-30890.04,-43734.24,-41560.53,0
1,0,1,1,1,1,-0.03,-0.97,0.06,55991.47,32834.68,-959.20,0
0,0,1,1,1,1,-0.15,-1.10,-0.51,15528.53,17306.15,17196.39,0
0,0,1,1,1,1,0.49,-0.84,-0.35,-12273.93,-24960.66,46175.19,0
1,0,1,1,0,1,0.39,-0.90,0.12,-25561.95,-29544.29,-21780.03,0
1,0,1,1,1,1,0.25,-0.97,-0.10,74848.57,25604.90,-15192.09,0
0,0,1,1,1,1,0.14,-1.03,-0.41,-40715.86,-2896.69,-23049.42,0
1,0,0,1,1,1,-0.54,-0.82,0.10,6475.79,-2660.47,-14528.77,3
1,0,0,1,1,0,-0.32,-0.59,0.38,32450.53,10720.60,19372.49,6
0,0,0,1,1,1,-0.23,-1.01,-0.50,43109.09,7413.51,18904.82,3
0,0,1,1,1,1,0.35,-0.83,-0.68,-12786.94,-33514.71,46991.22,0
1,0,1,1,0,1,0.73,-0.84,-0.19,-44569.36,-42140.35,-16375.58,0
1,0,1,1,0,1,0.21,-0.79,-0.02,59351.05,43803.44,-11295.65,0
0,0,1,1,1,1,0.17,-0.99,-0.67,269.63,20295.89,-36163.25,0
0,0,0,1,1,1,-0.29,-0.87,-0.44,-61885.06,-29737.57,-34996.46,3
1,0,0,1,1,0,-0.42,-0.95,0.42,-13025.54,10403.26,55297.12,6
1,0,1,1,1,1,0.54,-0.84,-0.08,12047.26,14070.64,33645.95,0
1,0,1,1,1,1,0.42,-1.18,-0.33,16373.20,12183.26,-37928.94,0
1,0,1,1,1,0,0.00,-0.70,0.53,-28406.14,-13206.89,-8816.52,6
1,0,1,1,1,1,0.03,-1.05,0.11,55571.52,13414.47,6184.69,0
0,0,1,1,1,1,-0.06,-0.95,-0.77,11092.83,11567.66,-2817.95,0
1,0,1,1,1,1,-0.00,-0.98,-0.21,-78184.29,-16318.32,-7361.02,0
1,0,1,1,1,0,0.02,-0.69,0.04,73927.55,6984.02,22202.36,6
1,0,1,1,0,1,0.78,-0.65,-0.40,6246.73,12383.69,22324.05,5
0,0,1,1,1,1,-0.26,-1.00,-0.29,-17041.30,9797.20,-78184.29,0
0,0,0,1,1,1,-0.49,-0.69,-0.37,6122.65,-546.41,4748.28,3
1,0,1,1,1,1,0.29,-0.76,-0.19,-424.72,-9255.56,56244.39,0
1,0,1,1,1,1,0.40,-0.96,-0.62,57535.26,53672.21,-43352.47,0
0,0,1,1,1,1,-0.09,-0.91,-0.51,-68678.20,-46514.01,60038.24,0
1,0,1,1,0,1,0.13,-0.81,0.30,-7537.59,-24013.39,-34457.21,0
1,0,1,1,1,1,-0.09,-0.96,-0.24,71391.16,32646.18,-16513.98,0
0,0,1,1,1,1,-0.18,-1.01,-0.53,-21329.06,-8792.66,19040.82,0
1,0,1,1,0,1,0.40,-0.93,-0.17,-22927.73,-31980.47,31030.81,0
1,0,1,1,0,1,0.41,-0.84,0.20,-4512.05,-3870.20,-4070.63,0
1,0,1,1,0,1,0.55,-0.81,0.15,17628.27,7165.36,-14419.01,0
1,0,1,1,0,1,0.47,-0.80,-0.04,29713.71,23063.73,-28952.55,0
0,0,1,1,1,1,-0.38,-0.94,-0.53,-5115.73,-5089.48,-52851.41,0
0,0,0,1,1,1,-0.29,-0.95,-0.49,7983.78,6351.71,30455.77,3
1,0,1,1,1,1,0.31,-0.87,-0.14,-34488.23,-26077.34,31515.19,0
1,0,1,1,1,1,0.18,-0.95,0.00,44772.18,21267.02,-19895.04,0
0,0,1,1,1,1,0.11,-1.04,-0.65,29145.82,22505.39,23018.40,0
0,0,1,1,1,1,0.40,-0.79,-0.38,-27060.40,-43700.84,20462.92,0
1,0,1,1,0,1,0.45,-0.79,0.33,-18663.82,-19444.07,-14352.20,0
1,0,1,1,1,1,0.77,-0.82,0.04,2939.64,22109.31,46671.49,0
1,0,1,1,0,1,0.51,-1.04,-0.13,46301.65,32264.41,-23662.64,0
0,0,1,1,1,1,-0.09,-1.09,-0.58,-5025.06,3507.52,-33839.21,0
0,0,0,1,1,1,-0.29,-1.02,-0.16,-50004.83,-29580.09,-21696.52,3
1,0,1,1,1,0,-0.04,-0.89,0.16,-1166.79,6874.26,50649.07,6
1,0,1,1,0,1,0.33,-0.86,-0.25,44870.01,51088.10,-3459.80,0
0,0,1,1,1,1,0.03,-1.06,-0.56,-22433.81,-9794.81,-34896.25,0
1,0,0,1,1,1,-0.06,-1.05,-0.13,-37523.30,-23889.31,14500.13,3
1,0,1,1,1,1,0.21,-0.83,0.15,2307.33,10422.34,39737.58,0
1,0,1,1,0,1,0.50,-0.93,-0.15,29871.19,32331.22,-7745.18,0
1,0,1,1,0,1,0.95,-0.53,-0.31,-3192.56,-6771.66,1049.87,5
1,0,1,1,1,1,0.03,-0.94,-0.18,17010.28,21083.30,-52281.14,0
0,0,1,1,1,1,0.02,-1.07,-0.64,-14729.20,-2660.47,-14815.10,0
1,0,1,1,1,1,-0.19,-0.78,0.16,-53097.17,-11567.66,37659.31,0
1,0,1,1,0,1,0.35,-0.83,0.06,63223.64,26518.76,16051.08,0
0,0,1,1,1,1,0.34,-1.14,-0.53,-11529.48,17038.91,-48680.56,0
1,0,1,1,1,1,0.05,-0.85,-0.30,-37759.53,-18358.41,12269.16,0
1,0,1,1,1,1,0.05,-0.98,-0.04,47707.04,18849.94,-12491.07,0
0,0,1,1,1,1,0.04,-1.08,-0.46,-16697.70,-4753.05,25621.60,0
1,0,1,1,0,1,0.49,-0.82,0.04,-41887.42,-43159.20,-14707.72,0
1,0,1,1,1,0,0.04,-0.90,0.20,24166.10,1109.52,-22183.27,6
1,0,0,1,1,1,-0.12,-1.06,-0.13,49494.21,16017.67,38.18,3
0,0,1,1,1,1,0.32,-0.82,-0.66,12732.06,8217.62,56611.85,0
1,0,1,1,0,1,0.45,-0.83,-0.09,-22763.09,-38535.00,-43459.84,0
1,0,1,1,1,1,0.03,-0.97,0.07,34042.03,-2436.18,-57153.49,0
1,0,1,1,1,1,0.01,-1.14,-0.29,-9711.30,-8530.19,34464.37,0
1,0,1,1,0,1,0.44,-0.74,0.14,12526.86,1853.97,7788.13,0
1,0,1,1,0,1,0.40,-0.91,-0.28,50904.37,42970.70,-58869.07,0

1,0,0,1,1,1,-0.20,-1.11,-0.04,-68234.38,-40138.44,-19047.98,3
1,0,1,1,1,1,0.30,-0.84,0.23,-2624.67,18367.95,55306.67,0
1,0,1,1,0,1,0.53,-0.85,-0.08,-11434.04,15017.91,7528.04,0
1,0,1,1,0,0,0.31,-0.78,0.42,8315.45,-39224.57,-19300.90,6
1,0,1,1,1,1,0.08,-1.12,0.18,49071.87,45337.68,-5399.67,0
0,0,1,1,1,1,0.14,-1.10,-0.33,940.11,-9222.15,37883.60,0
1,0,1,1,0,1,0.59,-0.70,0.08,-12309.72,-29370.11,-5643.05,0
1,0,1,1,1,0,-0.11,-0.88,0.55,-1052.26,-21290.88,-39747.12,6
1,0,0,1,1,0,-0.19,-1.06,0.04,62877.66,58308.34,12285.86,6
0,0,1,1,1,1,0.24,-1.04,-0.29,10921.03,-8103.09,38413.31,0
1,0,1,1,0,1,0.39,-0.82,-0.03,-6960.16,-26189.48,-23319.04,0
1,0,1,1,1,1,0.31,-1.02,-0.27,13390.61,18305.91,4299.69,0
1,0,1,1,1,1,0.19,-0.99,-0.24,-11.93,-2188.02,-3051.78,0
1,0,1,1,1,1,0.26,-0.99,-0.21,-570.27,-2061.56,2085.42,0
1,0,1,1,1,1,0.25,-0.99,-0.17,1751.37,479.60,-269.63,0
1,0,1,1,1,1,0.26,-0.99,-0.18,2221.43,-1782.39,-1068.96,0
1,0,1,1,1,1,0.26,-1.00,-0.15,1102.36,-567.88,396.09,0
1,0,1,1,1,1,0.29,-0.99,-0.16,2932.48,-1190.65,1734.67,0
1,0,1,1,1,1,0.25,-1.00,-0.17,3216.42,1598.67,47.72,0
1,0,1,1,1,1,0.27,-0.98,-0.19,1794.32,1966.12,-186.11,0
1,0,1,1,1,1,0.17,-0.98,-0.21,1639.23,-1961.35,1393.46,0
1,0,1,1,1,1,0.26,-0.99,-0.21,-195.66,-372.23,1476.98,0
1,0,1,1,1,1,0.28,-1.00,-0.12,-35.79,-1768.08,-830.35,0
1,0,1,1,1,1,0.28,-0.99,-0.12,1820.57,293.49,45.34,0
1,0,1,1,1,1,0.27,-1.00,-0.11,1672.63,-1434.03,-1527.08,0
1,0,1,1,1,1,0.27,-0.98,-0.12,2999.29,-713.43,310.19,0
1,0,1,1,1,1,0.24,-0.99,-0.07,-2137.92,-6876.65,-76.35,0
1,0,1,1,1,1,0.24,-1.01,0.02,1670.25,-4535.92,-429.49,0
1,0,1,1,1,1,0.30,-1.02,0.11,-1832.50,-8625.64,6105.95,0
1,0,1,1,1,1,0.35,-0.96,0.08,-2617.52,-5254.12,5423.53,0
1,0,1,1,1,1,0.31,-0.95,0.10,11715.59,-7041.29,2603.20,0
1,0,1,1,0,1,0.37,-1.00,0.01,69.20,-159.87,-3249.82,0
1,0,1,1,1,1,0.32,-0.95,-0.00,2386.07,-2099.74,-1412.55,0
1,0,1,1,1,1,0.27,-1.02,0.06,-386.54,1701.27,-2269.15,0
1,0,1,1,1,1,0.27,-0.97,0.05,-751.61,-2798.86,-4435.70,0
1,0,1,1,1,1,0.19,-1.00,0.11,-441.42,-2228.59,4667.15,0
1,0,1,1,1,1,0.23,-0.99,0.12,1973.28,-1414.94,1827.73,0
1,0,1,1,0,1,0.33,-0.94,0.07,5225.49,5643.05,2550.71,0
1,0,1,1,1,1,0.24,-0.96,0.05,2295.40,-81.13,-4523.98,0
1,0,1,1,1,1,0.29,-0.97,0.06,2319.26,2572.18,4108.81,0
1,0,1,1,0,1,0.30,-0.98,0.03,2701.03,9179.20,3977.58,0
1,0,1,1,1,1,0.28,-0.97,0.06,1367.22,2944.41,-2691.48,0
1,0,1,1,1,1,0.29,-0.99,0.02,-143.16,-3268.91,-3688.86,0
1,0,1,1,1,1,0.28,-0.95,-0.03,2467.19,-1901.70,-1663.09,0
1,0,1,1,1,1,0.27,-0.98,0.04,4731.57,-2264.38,1264.62,0
1,0,1,1,0,1,0.33,-0.97,0.02,4490.58,2252.45,646.62,0
1,0,1,1,1,1,0.29,-0.99,-0.03,3242.67,1558.10,2765.45,0
1,0,1,1,0,1,0.30,-1.00,0.02,-696.73,1276.55,-880.46,0
1,0,1,1,1,1,0.28,-0.97,0.01,4562.16,1154.86,1300.41,0
1,0,1,1,0,1,0.34,-0.98,-0.01,1789.55,-570.27,1159.63,0
1,0,1,1,0,1,0.32,-0.93,-0.01,3290.39,1639.23,14.32,0
1,0,1,1,0,1,0.34,-1.00,-0.01,3688.86,15213.57,-8239.09,0
1,0,1,1,1,1,0.15,-1.03,-0.12,2660.47,5223.10,1278.93,0
1,0,1,1,1,1,0.24,-1.03,-0.03,5652.60,-205.20,4669.54,0
1,0,1,1,1,1,0.22,-0.97,-0.12,6187.07,866.14,-1686.95,0
0,0,1,1,1,1,0.18,-0.97,-0.23,3543.31,-858.98,-5139.59,0
1,0,1,1,1,1,0.23,-1.01,-0.19,1104.75,-4495.35,1682.18,0
1,0,1,1,1,1,0.24,-0.98,-0.12,-529.71,856.60,3481.27,0
1,0,1,1,1,1,0.25,-1.05,-0.05,3982.35,-663.33,921.02,0
1,0,1,1,1,1,0.30,-0.93,-0.20,13669.78,-13953.73,-3089.96,0
1,0,1,1,1,1,0.34,-1.00,-0.15,-5977.10,5058.46,-4502.51,0
1,0,1,1,1,1,0.21,-1.00,-0.13,6542.60,4314.01,-5549.99,0
1,0,1,1,1,1,0.23,-1.00,-0.15,2154.62,-1240.76,26.25,0
1,0,1,1,1,1,0.20,-1.01,-0.15,3089.96,1627.30,-1818.18,0
1,0,1,1,1,1,0.15,-1.06,-0.19,15184.94,25912.70,8587.46,0
1,0,1,1,0,1,0.57,-0.88,-0.07,-28165.15,-55225.54,24500.15,0
1,0,1,1,0,0,0.05,-0.96,0.28,36879.07,6184.69,-41376.80,6
1,1,1,1,1,1,0.09,-0.88,-0.61,40042.99,17110.49,40887.66,0
1,0,1,1,0,1,0.73,-0.77,-0.30,-21324.29,-36972.12,26020.07,0
1,0,1,1,0,1,0.54,-0.91,-0.16,12503.00,12083.05,1751.37,0
0,1,1,1,1,1,0.46,-0.86,-0.56,5841.09,-1026.01,-74834.25,0
0,0,0,1,1,1,-0.13,-1.05,-0.19,-44793.66,-15366.28,24815.11,3
1,0,1,1,0,1,0.64,-0.78,0.00,14077.80,44500.17,20780.27,0
1,0,1,1,1,1,0.45,-0.93,-0.35,-10441.43,-35387.77,-23142.47,0
1,0,1,1,1,0,-0.01,-0.88,0.17,13008.84,-18432.38,-51233.65,6
1,0,0,1,1,1,-0.28,-0.88,-0.37,73152.07,27062.78,44874.78,3
0,0,1,1,1,1,0.35,-0.82,-0.69,-19305.68,-41808.68,35965.20,0
1,0,1,1,0,1,0.56,-0.86,0.03,-8878.56,-34650.48,-22047.27,0
1,0,1,1,1,1,0.17,-1.05,0.19,2343.12,-1522.31,3824.87,0
1,0,1,1,0,1,0.82,-0.78,0.07,-11329.05,13665.01,12443.34,5
1,0,1,1,1,1,0.42,-0.84,-0.21,43562.45,29926.06,-49520.46,0
0,0,1,1,1,1,0.07,-0.97,-0.40,-59580.12,-45678.89,-37103.36,0
1,0,1,1,1,0,-0.00,-0.93,0.31,36029.62,29150.59,16857.57,6
1,0,1,1,1,1,0.26,-1.01,-0.43,23187.81,20763.56,36392.31,0
1,0,1,1,0,1,0.61,-0.73,0.19,-28084.02,-66091.70,-34750.70,0
1,0,1,1,0,0,0.09,-0.99,0.32,46339.83,46638.09,4924.84,6
1,0,1,1,1,1,0.03,-1.03,-0.52,35132.46,11028.41,9639.71,0
1,0,1,1,1,1,0.49,-0.75,-0.27,-20233.86,-30109.79,35745.68,0
1,0,1,1,1,1,0.17,-0.87,0.09,5743.27,-35280.40,-61801.55,0
1,0,1,1,1,1,-0.00,-1.08,-0.01,33724.68,45800.57,35464.13,0
0,0,1,1,1,1,0.02,-0.86,-0.71,35110.99,8723.46,-12684.34,0
0,0,1,1,1,1,-0.17,-0.84,-0.63,-57886.01,-21543.81,-55371.09,0
1,0,0,1,1,1,-0.44,-0.94,-0.11,-45616.85,140.78,43144.88,3
1,0,1,1,1,1,0.24,-0.85,-0.02,36871.91,30792.21,-7318.07,0
1,0,0,1,1,1,-0.40,-1.05,0.08,11269.40,8153.19,-35545.25,3
1,0,1,1,1,1,-0.19,-0.99,-0.23,26750.21,17874.04,58675.80,0
1,0,1,1,1,1,0.21,-0.86,0.05,-36690.57,-41405.44,9279.42,0
1,0,1,1,1,0,-0.02,-0.97,0.28,23044.64,20539.27,10956.82,6
1,0,1,1,1,1,0.11,-1.08,-0.41,33490.85,30238.64,12032.94,0
1,0,1,1,1,1,0.13,-0.95,0.20,-52565.08,-32560.28,-16793.15,0
1,0,1,1,1,0,0.29,-0.97,0.30,5394.90,5335.25,33894.10,6
1,0,1,1,0,1,0.37,-0.87,-0.22,46017.71,31644.03,-13681.71,0
0,0,1,1,1,1,-0.09,-1.07,-0.33,-25397.31,-27957.56,-41145.36,0
1,0,1,1,1,1,-0.04,-1.01,-0.02,49472.73,49353.43,35516.62,0
0,0,1,1,1,1,0.23,-1.01,-0.41,-32887.18,-22247.70,15230.27,0
1,0,1,1,1,0,0.14,-0.93,0.27,-21641.64,-42078.31,-30214.78,6
1,0,1,1,1,1,-0.03,-1.02,-0.03,71391.16,43774.80,-7267.96,0
0,0,1,1,1,1,-0.03,-0.99,-0.56,9947.52,-1887.38,26294.47,0
0,0,1,1,0,1,0.59,-0.75,-0.43,6924.37,-8489.63,-29143.43,0
0,0,0,1,1,1,-0.31,-0.97,-0.55,7306.14,13455.04,-13175.87,3
0,0,1,1,1,1,-0.06,-0.73,-0.73,54316.45,14662.39,37477.97,1
0,0,1,1,1,1,0.20,-0.87,-0.68,-78184.29,-25948.49,-38721.11,0
1,0,1,1,1,1,-0.46,-0.94,-0.28,11128.62,-1381.53,-28420.46,0
1,0,0,1,1,1,-0.19,-0.90,-0.15,-35829.20,-15702.71,34760.24,3
1,0,1,1,1,1,0.15,-0.86,-0.23,-28157.99,-16210.95,13393.00,0
1,0,1,1,1,0,-0.04,-1.02,0.27,45686.04,33073.29,12801.25,6
1,0,1,1,1,1,0.37,-0.79,-0.25,-38778.38,-23903.63,37067.57,0
1,0,1,1,1,0,-0.01,-0.96,0.37,18406.13,-4559.78,-27752.36,6
1,0,1,1,1,1,0.05,-1.00,-0.18,50689.63,34574.12,1493.68,0
0,0,1,1,1,1,0.12,-1.06,-0.35,-651.40,4731.57,19224.55,0

