tVal2,tVal3,tVal4,tVal5,tVal6,tVal7,ax,ay,az,gx,gy,gz,face
1,1,1,1,0,1,1.06,-0.04,0.15,-2588.88,9432.13,2202.34,5
1,1,1,1,0,1,1.06,0.02,0.02,7067.53,-31582.00,-5700.32,0
1,1,1,1,0,1,0.88,0.04,0.69,12732.06,703.89,10076.37,0
1,1,1,1,0,1,0.91,-0.26,-0.00,-7630.65,38854.73,2593.66,5
1,1,1,1,0,1,0.94,0.16,-0.27,-31811.06,31787.20,-7291.82,0
1,1,1,1,0,1,1.15,0.03,-0.23,21267.02,-43290.43,11460.28,0
1,1,1,0,0,1,0.88,0.02,0.56,9074.22,-19639.73,24986.90,4
1,1,1,0,0,0,0.85,0.44,0.17,-12655.71,19778.12,6535.44,4
1,1,1,0,0,1,0.92,0.38,-0.23,-18322.62,16809.85,-41868.34,4
1,1,1,1,0,1,1.09,-0.12,-0.28,60663.39,-48711.58,8260.57,5
1,1,1,0,0,0,0.94,0.25,0.51,8112.63,-13266.54,8282.04,4
1,1,1,1,0,1,0.98,-0.14,-0.28,-32970.69,31579.61,-40663.37,5
1,1,1,1,0,1,0.91,0.11,0.09,47165.41,-36797.94,17403.98,0
1,1,1,1,0,0,0.84,-0.09,0.38,39608.73,-42381.34,1035.55,5
1,1,1,1,0,0,0.63,0.04,0.89,-53755.73,26988.81,9591.99,6
1,1,1,0,0,0,0.85,0.38,0.32,-25643.07,25972.35,-20670.51,4
1,1,1,1,0,1,1.03,-0.14,-0.12,-17876.42,24306.88,-18890.50,5
1,0,1,1,0,1,0.99,-0.28,-0.61,-887.62,21252.71,7236.94,5
0,1,1,1,0,1,0.83,0.36,-0.70,13152.01,-20405.65,-18429.99,0
1,0,1,1,0,1,0.85,-0.32,-0.20,23097.14,-39637.36,-36363.68,5
1,0,1,1,0,1,0.89,-0.73,-0.27,-2087.81,25142.00,7907.43,5
0,0,1,1,0,1,1.15,-0.17,-0.82,18632.80,-3414.46,43464.61,5
1,1,1,0,0,1,0.88,0.26,0.10,41462.70,-41004.58,-6511.58,4
1,1,1,1,0,1,0.99,-0.42,-0.05,-9308.05,17986.18,-31326.69,5
1,0,1,1,0,1,1.05,-0.48,-0.02,16482.96,-26986.43,-8592.23,5
1,1,1,1,0,1,0.72,-0.18,0.62,10909.10,-20510.64,39083.79,5
1,1,1,1,0,1,0.79,-0.02,0.32,-38408.54,40539.30,-9541.89,5
1,1,1,1,0,1,1.02,-0.05,-0.25,-18611.33,23078.05,-18890.50,5
1,0,1,1,0,1,1.03,-0.11,-0.41,7205.93,-1858.75,36065.42,5
1,1,1,0,0,1,0.95,0.41,-0.03,39744.73,-29580.09,-14481.05,4
1,1,1,1,0,1,0.85,-0.11,0.39,-17981.41,28597.03,-14228.12,5
1,0,1,1,0,1,1.05,-0.26,-0.58,-21570.05,28780.75,-687.19,5
1,1,1,1,0,1,1.13,0.03,-0.56,34003.86,-19417.82,37341.96,0
1,1,1,0,0,1,0.90,0.34,-0.01,21271.80,-19090.93,-27549.54,4
1,1,1,1,0,1,0.90,-0.29,0.46,3140.07,12825.12,-12414.71,5
1,0,1,1,0,1,0.94,-0.36,-0.16,-24347.44,36938.72,288.71,5
1,0,1,1,0,1,0.98,-0.13,-0.08,36874.29,-32567.44,-2560.25,5
1,1,1,1,0,1,0.97,-0.09,0.07,22806.04,-36339.82,15573.87,5
1,1,1,1,0,0,0.86,0.05,0.43,-47695.11,27914.61,-3519.45,0
1,1,1,1,0,1,0.97,0.01,0.01,-14555.01,25189.72,-16122.66,0
1,0,1,1,0,1,1.02,-0.21,-0.26,-17127.20,24476.29,-16950.63,5
1,1,1,1,0,1,0.99,0.12,-0.70,-45.34,15953.25,34263.94,0
1,1,1,1,0,1,0.97,-0.04,-0.55,39329.56,-41131.04,-20649.03,5
1,1,1,1,0,1,1.02,0.05,-0.03,9152.96,-17919.37,25335.27,0
1,1,1,0,0,1,0.90,0.57,0.22,-5662.14,-4967.79,-13648.31,4
1,1,1,1,0,1,1.00,-0.14,0.09,7718.93,14683.86,-36230.05,5
1,1,1,1,0,1,0.95,-0.07,0.02,4073.02,-11298.03,-24197.12,5
1,0,1,1,0,1,0.92,-0.13,0.10,1171.56,25163.47,3815.32,5
1,0,1,1,0,1,0.97,-0.59,-0.25,-5087.10,29110.03,18425.22,5
1,1,1,1,0,1,1.17,-0.08,-0.53,21963.76,-37580.57,-1717.97,5
1,1,1,1,0,1,0.90,0.12,0.08,-3841.57,2576.95,4643.29,0
1,0,1,1,0,1,0.99,-0.52,-0.18,-5113.34,8098.31,-37654.54,5
1,0,1,1,0,1,0.96,-0.38,-0.16,11429.27,-13872.60,11615.38,5
1,1,1,1,0,1,0.94,-0.06,0.28,7561.45,-4671.92,39728.03,5
1,0,1,1,0,1,0.90,-0.32,-0.24,-23221.21,13655.47,-34693.43,5
1,0,1,1,0,1,1.18,-0.51,-0.56,5666.91,7399.20,21252.71,5
1,1,1,1,0,1,1.03,-0.07,-0.18,29148.21,-38575.56,20615.63,5
1,1,1,1,0,1,0.85,0.10,-0.28,-47928.95,42569.84,-8909.58,0
1,1,1,1,0,1,0.97,-0.22,-0.68,-15213.57,28690.08,-7718.93,5
0,1,1,1,0,1,0.80,0.42,-0.51,50646.68,-33214.07,38181.86,0
1,1,1,1,0,1,0.84,-0.13,-0.10,54185.22,-42660.51,-59689.88,5
1,0,1,1,0,1,0.97,-0.40,0.15,-29634.96,41305.22,11780.02,5
1,1,1,1,0,1,1.26,0.11,-0.53,5802.92,-6241.95,-6482.95,0
1,0,1,1,0,1,0.86,-0.44,0.08,38234.36,-46320.74,-15602.50,5
1,0,1,1,0,1,0.88,-0.29,0.29,-10000.01,4287.76,11920.80,5
1,0,1,1,0,1,1.06,-0.60,-0.15,-19284.20,24600.36,-18122.19,5
1,0,1,1,0,1,1.09,-0.59,-0.28,-5726.56,32035.35,3271.30,5
1,1,1,1,0,1,0.90,-0.09,-0.19,22321.67,-10718.22,33128.17,5
1,1,1,0,0,1,0.99,0.37,-0.29,29117.19,-26494.90,-1219.28,4
1,1,1,1,0,1,0.99,-0.22,-0.09,49062.33,-14955.87,-25089.51,5
1,0,1,1,0,1,1.09,-0.37,-0.27,-26681.01,28656.68,-1777.62,5
1,0,1,1,0,1,1.09,-0.13,-0.52,-17146.29,22880.01,31080.92,5
1,1,1,1,0,1,0.92,0.07,-0.29,49143.46,-57492.31,12166.56,0
1,1,1,0,0,1,1.00,0.08,0.09,25495.14,-16218.10,10388.94,4
1,1,1,0,0,1,0.97,0.13,-0.04,-39496.58,30093.09,-23753.31,4
1,1,1,1,0,1,1.02,0.20,-0.38,-17411.14,14652.84,-24392.77,0
1,0,1,1,0,1,1.12,-0.36,-0.32,31519.96,-17637.81,-9952.29,5
1,0,1,1,0,1,0.96,-0.37,0.04,30095.48,-19074.23,6561.69,5
1,0,1,1,0,1,0.88,-0.27,0.31,8730.62,-22829.90,-12743.99,5
1,0,1,1,0,1,0.91,-0.62,-0.24,-35950.89,53178.30,-15812.47,5
1,0,1,1,0,1,1.12,-0.46,-0.16,-4249.59,5752.81,8103.09,5
1,0,1,1,0,1,1.03,-0.21,-0.23,20450.99,-22047.27,24502.53,5
1,0,1,1,0,1,0.82,-0.43,0.24,34092.14,-26628.52,-13793.86,5
1,0,1,1,0,1,1.08,-0.03,-0.10,-2510.14,2982.58,28079.25,5
1,1,1,1,0,1,0.76,-0.03,0.60,14628.98,-28983.57,4507.28,5
1,1,1,1,0,1,1.06,-0.04,0.14,-7874.02,23039.87,-15227.89,5
1,0,1,1,0,1,1.12,-0.25,-0.20,-28129.36,22822.74,24039.63,5
1,1,1,1,0,1,1.02,0.52,-0.17,-5757.58,-6609.41,30854.25,0
1,1,1,1,0,1,0.82,-0.33,0.01,3965.65,5621.58,-68690.13,5
1,0,1,1,0,1,0.95,-0.88,-0.26,29498.96,-62770.29,-22087.83,5
1,0,1,1,0,1,0.65,-0.73,0.37,6962.55,-25075.19,32312.13,0
1,0,1,1,0,0,0.79,-0.24,0.44,-43309.52,47747.61,27394.45,5
1,1,1,1,0,1,0.92,-0.04,-0.35,-41920.83,39315.24,-11982.83,5
1,1,1,1,0,1,1.07,-0.26,-0.54,5922.22,20443.83,39642.13,5
1,1,1,0,0,1,0.91,0.29,-0.39,35070.43,-29331.93,20303.05,4
1,1,1,0,0,1,0.85,0.35,0.26,21061.82,-14070.64,-22400.41,4
1,1,1,1,0,1,1.16,-0.22,0.07,-12848.98,14280.62,-16590.33,5
1,1,1,1,0,1,1.08,0.38,-0.32,11026.02,13560.02,43397.80,0
1,1,1,0,0,1,0.91,0.21,0.09,50365.12,-33657.87,12283.48,4
1,1,1,0,0,0,0.84,0.28,0.54,2197.57,1765.69,-372.23,4
1,1,1,0,0,1,0.85,0.42,-0.00,-40703.93,17117.65,14006.22,4
1,1,1,1,0,1,0.93,0.16,-0.15,-27802.46,15623.97,-55838.76,0
1,0,1,1,0,1,1.10,-0.55,-0.23,10820.82,-6640.43,-195.66,5
1,1,1,1,0,1,0.87,0.36,-0.52,3765.22,21567.67,51784.83,0
0,1,1,0,0,1,0.76,0.63,-0.54,12028.17,9799.58,30362.71,1
1,1,1,0,0,1,0.87,0.68,-0.15,52672.45,-22192.82,-30434.30,4
1,1,1,0,0,1,0.85,0.24,0.05,-49747.13,-4325.94,45774.33,4
1,1,1,0,0,1,0.68,0.43,0.10,-3667.39,2701.03,-15523.76,4
1,1,1,0,0,1,0.84,0.72,-0.30,-27728.50,5297.07,-36051.10,4
1,1,1,1,0,1,1.01,0.16,-0.48,-5461.71,-3612.51,-28768.82,0
1,0,1,1,0,1,1.10,-0.20,-0.48,37201.19,-25779.08,-1109.52,5
1,0,1,1,0,1,1.04,-0.28,-0.10,18389.43,-7234.56,12815.57,5
1,1,1,0,0,1,0.89,0.35,-0.08,28122.20,-22670.03,54318.84,4
1,1,1,0,0,0,0.85,0.36,0.42,27375.36,-9370.09,-21300.43,4
1,1,1,0,0,1,0.90,0.18,0.05,-54082.62,40176.61,-19923.67,4
1,1,1,1,0,1,1.09,0.05,-0.42,-48558.87,28408.53,-14096.89,0
1,0,1,1,0,1,0.89,-0.46,-0.44,-9534.73,-18654.28,-49157.77,5
1,0,1,1,0,1,0.84,-0.52,-0.05,36657.16,-25471.28,34760.24,5
1,1,1,1,0,1,1.08,-0.08,-0.28,200.43,2230.97,28308.31,5
1,1,1,1,0,1,1.08,0.82,-0.69,-23054.19,10699.13,21097.61,0

1,1,1,1,0,1,1.00,-0.15,-0.20,50100.27,-46826.59,7730.86,5
1,1,1,0,0,1,0.69,0.26,0.53,7821.53,-18515.89,31274.19,4
1,1,1,0,0,1,0.92,0.49,0.01,-45974.76,39964.25,-21104.77,4
1,1,1,1,0,1,1.06,-0.02,-0.53,-19720.85,18406.13,-33016.02,5
1,0,1,1,0,1,0.84,-0.47,-0.22,7155.82,-24275.86,-32376.56,5
1,0,1,1,0,1,0.95,-0.63,-0.29,2288.24,24192.34,11865.92,5
1,1,1,1,0,1,0.84,-0.18,0.01,-3863.04,14266.30,13653.08,5
0,0,1,1,0,1,0.76,-0.63,-0.55,-14748.29,11240.77,-23548.11,1
0,0,1,1,0,1,0.79,-0.31,-0.60,41534.29,-36420.94,32674.81,5
1,1,1,1,0,1,1.01,0.04,0.06,36499.68,-27850.19,24325.96,0
1,1,1,1,1,1,0.74,0.06,0.38,8802.21,-2567.41,-23676.95,0
1,0,1,1,0,1,1.09,-0.14,-0.45,-23581.51,30274.43,-16096.42,5
1,0,1,1,0,1,0.98,-0.53,-0.22,3264.14,-10990.23,12197.58,5
1,0,1,1,0,1,0.97,-0.32,-0.37,-13591.04,32844.23,24053.95,5
1,1,1,1,0,1,0.91,0.44,-0.26,48754.53,-35793.41,19608.71,0
1,1,1,0,0,1,0.95,0.15,0.35,22343.14,-1947.03,-1951.80,4
1,1,1,1,0,1,1.04,0.02,-0.28,-28799.84,33388.25,-16077.33,0
1,1,1,1,0,1,0.97,-0.20,-0.59,-27714.18,23703.20,-17167.76,5
1,1,1,1,0,1,1.03,-0.25,-0.48,7473.17,12097.37,31541.43,5
0,1,1,1,0,1,1.10,0.00,-0.70,32639.02,-37404.00,3777.15,0
1,1,1,1,0,1,0.85,-0.12,0.42,-5435.46,3884.52,4941.55,5
1,1,1,0,0,1,0.93,0.46,-0.56,-17215.48,49942.79,9405.88,4
0,1,1,1,0,1,0.98,0.15,-0.65,-18052.99,-4450.02,-27270.37,0
1,0,1,1,0,1,0.94,-0.42,-0.40,9441.67,-18169.91,-12543.56,5
1,0,1,1,0,1,1.04,-0.14,-0.35,7217.86,15822.02,24063.50,5
1,1,1,1,0,1,1.00,0.07,-0.39,4702.94,-990.22,2030.54,0
1,1,1,1,0,1,0.94,-0.11,-0.43,1150.08,-4485.81,-9594.38,5
1,1,1,1,0,1,0.98,-0.07,-0.43,827.97,-689.57,73.97,5
1,1,1,1,0,1,1.04,-0.13,-0.37,2531.62,-1923.17,2018.61,5
1,1,1,1,0,1,0.99,-0.08,-0.40,2617.52,-1004.53,-1350.51,5
1,1,1,1,0,1,1.01,-0.12,-0.38,3254.60,-842.28,-770.70,5
1,1,1,1,0,1,1.03,-0.06,-0.40,1004.53,2054.40,711.05,5
1,1,1,1,0,1,0.95,-0.14,-0.37,-5864.96,16797.92,5888.82,5
1,1,1,1,0,1,1.02,0.15,-0.55,40028.68,-16156.07,17847.79,0
0,1,1,0,0,1,0.88,0.47,-0.44,3944.17,-2782.16,4442.86,4
1,1,1,1,0,1,0.87,-0.12,0.20,17618.73,-54750.71,-35010.78,5
1,1,1,1,0,1,0.87,0.19,-0.10,-15261.29,44442.90,24917.71,0
1,1,1,1,0,1,1.11,0.17,-0.42,-27697.48,367.45,-18391.81,0
1,0,1,1,0,1,0.85,-0.46,-0.29,-8334.54,31207.38,-1961.35,5
0,1,1,1,0,1,0.87,-0.07,-0.62,70346.05,-11980.45,46246.77,5
0,1,1,0,0,1,1.04,0.54,-0.76,28472.95,-37475.59,-14020.54,4
1,1,1,0,0,1,0.93,0.41,-0.38,-51873.12,30150.36,-8570.76,4
0,1,1,1,0,1,0.83,0.52,-0.74,20236.24,13049.41,18954.92,1
1,1,1,0,0,1,0.85,0.63,-0.43,27477.96,-18783.13,-15323.33,4
1,1,1,0,0,1,0.91,0.59,-0.18,-39945.16,23567.19,-21999.55,4
0,1,1,1,0,1,1.03,0.10,-0.66,-32307.36,18157.98,-8969.23,0
1,1,1,1,0,1,0.92,-0.16,-0.37,14192.33,-32044.89,-30372.26,5
1,0,1,1,0,1,1.02,-0.46,-0.37,7215.47,-31.02,-2216.66,5
1,1,1,1,0,1,0.96,0.05,-0.13,24750.68,-23927.49,39195.94,0
1,1,1,0,0,1,1.03,0.21,-0.31,-37487.52,27198.79,-1326.65,4
1,1,1,1,0,1,1.02,0.36,-0.71,5604.87,10470.07,20596.54,0
1,1,1,0,0,1,0.78,0.46,0.06,18241.49,-3552.86,2078.27,4
1,1,1,0,0,1,0.89,0.41,-0.50,-42925.36,19518.04,-24404.70,4
0,1,1,1,0,1,0.90,-0.06,-0.71,-28799.84,-2176.09,-32328.84,5
1,0,1,1,0,1,0.98,-0.54,-0.20,20026.27,-39637.36,93.06,5
1,1,1,1,0,1,0.98,-0.05,-0.37,-5752.81,33815.36,5958.01,5
0,1,1,1,0,1,1.03,-0.11,-0.72,3858.27,-23023.17,1085.66,5
1,0,1,1,0,1,0.99,-0.34,-0.07,20830.37,-16430.46,-69.20,5
1,1,1,1,0,1,0.80,-0.03,-0.25,-18449.08,55352.00,28969.25,5
0,1,1,1,0,1,0.91,-0.09,-1.02,37678.40,-5416.37,19203.08,1
0,1,1,0,0,1,0.77,0.74,-0.52,15399.68,-15053.70,-6857.56,1
0,1,1,1,0,1,0.91,0.26,-0.62,-27921.77,10143.17,-20231.47,0
0,1,1,1,0,1,0.94,0.10,-0.30,37184.48,-25449.80,-10076.37,0
1,1,1,1,0,1,0.86,0.30,-0.61,-2603.20,9346.23,12130.77,0
0,1,1,1,0,1,0.95,0.35,-0.58,9792.42,-11264.63,-2937.25,0
1,1,1,1,0,1,0.90,0.12,-0.12,8327.38,-11994.76,4865.19,0
1,1,1,0,0,1,1.02,0.13,-0.62,-6530.67,41140.59,-8174.67,4
0,1,1,1,0,1,0.86,0.18,-0.62,2856.12,-6941.07,1727.51,0
0,1,1,1,0,1,0.89,0.26,-0.49,2476.74,-4753.05,50.11,0
0,1,1,1,0,1,0.88,0.14,-0.52,-7093.78,5213.56,-4459.56,0
0,1,1,1,0,1,0.80,0.11,-0.63,1722.74,9088.53,5898.36,0
0,1,1,1,0,1,0.86,0.29,-0.44,38038.70,-45294.73,-19720.85,0
1,1,1,0,0,1,0.91,0.16,-0.42,-49768.61,30527.35,10105.00,4
0,1,1,1,0,1,0.91,0.02,-0.66,5979.49,2295.40,9868.78,0
0,1,1,0,0,1,0.88,0.35,-0.63,29959.47,-12679.57,18990.71,4
0,1,1,0,0,1,0.67,0.40,-0.61,-32593.69,25082.35,-15371.05,1
0,1,1,1,0,1,0.85,0.11,-0.79,44624.24,-27676.00,-45802.96,0
1,1,1,1,0,1,1.10,0.09,-0.25,27170.16,-29487.03,11758.54,0
1,1,1,0,0,1,0.93,0.21,-0.03,3784.30,-41119.11,-12426.64,4
1,1,1,1,0,1,0.90,-0.22,0.30,-43903.65,4459.56,-18370.34,5
1,0,1,1,0,1,1.14,-0.11,0.02,15688.40,25344.81,-13061.34,5
1,0,1,1,0,1,0.90,-0.48,-0.17,39923.69,-59172.10,-16855.18,5
1,0,1,1,0,1,0.86,-0.55,0.37,-4846.10,-4736.35,45153.95,5
1,1,1,1,0,1,0.92,0.24,0.25,-43233.17,35449.81,8647.11,0
1,1,1,1,0,1,1.11,-0.14,-0.38,-34440.50,29305.69,-20744.47,5
1,0,1,1,0,1,1.07,-0.08,-0.55,9696.98,-1813.41,-8606.55,5
1,1,1,1,0,1,1.01,-0.29,-0.20,861.37,-29594.40,-21944.67,5
1,0,1,1,0,1,0.73,-0.66,-0.30,3008.83,11276.56,8131.72,5
1,0,1,1,0,1,1.11,0.01,-0.22,21035.58,-21923.19,23679.34,0
1,1,1,1,0,1,0.94,-0.01,-0.11,14123.14,102.60,-23717.52,5
1,0,1,1,0,1,0.99,-0.48,-0.08,-11212.13,16218.10,3202.10,5
1,0,1,1,0,1,0.96,-0.38,-0.19,-6167.99,5559.54,-5645.44,5
1,0,1,1,0,1,0.93,-0.44,-0.23,-1173.95,-963.97,-14946.33,5
1,0,1,1,0,1,0.89,-0.88,-0.36,5235.03,-9172.04,-10663.34,0
1,0,1,1,0,1,0.89,-0.36,-0.04,21765.71,-19408.28,17761.89,5
1,0,1,1,0,1,0.92,-0.10,-0.05,-21947.05,37854.97,27401.61,5
1,0,1,1,0,1,1.04,-0.20,-0.61,-16046.31,25320.95,12242.92,5
1,1,1,1,0,1,0.82,0.07,-0.57,31825.38,-26504.44,28088.79,0
1,1,1,0,0,1,0.87,0.58,-0.30,33533.80,-10023.87,5347.18,4
1,1,1,0,0,1,0.98,0.12,0.00,4657.60,875.69,-42662.89,4
1,1,1,1,0,1,0.99,-0.26,-0.38,-28251.04,39630.20,-25287.55,5
0,0,1,1,0,1,1.00,-0.19,-0.65,19716.08,-17351.49,21460.29,5
1,1,1,1,0,1,1.03,0.18,-0.23,31090.47,-37299.02,8396.57,0
1,1,1,1,0,1,0.91,0.01,0.15,22491.08,-9895.02,-27074.71,0
1,0,1,1,0,1,0.97,-0.31,0.00,-29222.17,57351.53,-12765.46,5
1,0,1,1,0,1,0.94,-0.25,-0.66,-16511.59,35681.26,5309.00,5
0,1,1,1,0,1,0.97,-0.11,-0.57,22598.45,-25731.36,42717.78,5
1,1,1,1,0,1,0.94,-0.08,-0.37,8513.49,-14120.75,-58807.03,5
1,0,1,1,0,1,1.11,-0.53,-0.39,16456.71,-31410.20,18334.55,5
1,0,1,1,0,1,0.95,-0.20,0.15,1949.42,-5060.85,31911.27,5
1,1,1,1,0,1,0.97,-0.04,-0.57,-29267.51,73063.79,7535.20,5
0,1,1,1,0,1,0.95,0.07,-0.81,26246.75,-56485.39,909.09,0
1,1,1,0,0,1,0.94,-0.05,0.12,8737.78,-54986.94,6323.08,4
1,1,1,0,0,0,0.85,0.10,0.35,-5609.65,44082.61,2183.25,4
1,1,1,1,0,1,1.17,-0.20,-0.30,-1751.37,27499.43,12536.40,5
1,1,1,0,0,1,0.86,0.58,-0.43,1892.15,-6000.96,30458.16,4
1,1,1,0,0,1,0.93,0.23,-0.16,4018.14,-4514.44,-47468.44,4
1,1,1,1,0,1,1.01,-0.09,-0.21,-6237.18,4912.91,-55509.48,5
1,0,1,1,0,1,1.01,-0.43,-0.25,-1426.87,-386.54,50546.46,5
1,1,1,1,0,1,1.04,0.02,-0.19,20758.79,-16599.88,35060.88,0

1,1,1,0,0,1,0.66,0.40,0.30,-3786.69,-794.56,12221.44,4
1,1,1,0,0,1,0.68,1.08,-0.21,-13910.78,7590.08,16523.52,0
1,1,1,0,0,1,0.96,0.34,-0.08,28582.71,-32662.88,-34819.89,4
1,1,1,1,0,0,0.87,-0.09,0.40,5120.50,13676.94,-10503.47,5
1,1,1,1,0,1,0.94,-0.32,0.09,-13879.76,45495.16,-16132.21,5
0,0,1,1,0,1,1.07,-0.21,-0.73,-765.93,9384.41,6027.21,5
1,1,1,1,0,1,0.93,-0.10,-0.21,5041.76,-17482.72,9413.04,5
1,0,1,1,0,1,1.17,-0.29,-0.33,1014.08,3311.86,30660.97,5
1,1,1,0,0,1,0.83,0.42,0.01,-1035.55,-73.97,-20164.66,4
1,1,1,1,0,1,1.26,-0.63,-0.42,4681.47,-9639.71,-36306.41,5
1,0,1,1,0,1,1.04,-0.67,-0.17,18976.40,-34583.67,-7089.01,5
1,0,1,1,0,1,0.69,-0.60,0.18,-4710.10,24402.32,-9157.73,5
1,0,1,1,0,1,0.94,-0.54,-0.35,-6287.29,18406.13,29195.93,5
1,1,1,1,0,1,1.00,-0.18,-0.12,5604.87,-4490.58,40503.50,5
1,1,1,0,0,1,0.83,0.37,0.06,29506.12,-20861.39,8668.58,4
1,1,1,0,0,1,0.92,0.16,-0.15,-34688.66,27878.82,34388.01,4
1,1,1,0,0,1,0.76,0.85,-0.12,28198.55,-17644.97,-10622.77,0
1,1,1,0,0,1,1.03,-0.02,0.29,-5151.52,15242.20,-39184.01,4
1,1,1,1,0,1,1.13,0.03,-0.42,-24571.73,30916.28,-7473.17,0
1,1,1,1,0,1,0.77,0.02,0.07,19811.52,-43915.58,-2429.02,0
1,1,1,1,0,1,0.92,-0.03,0.12,11794.33,-58947.81,7833.46,5
1,1,1,1,0,0,0.63,0.08,0.21,-9732.77,78186.68,-7081.85,0
1,1,1,1,0,1,0.82,-0.01,-0.48,-19420.21,72164.24,14034.85,5
0,1,1,1,0,1,0.89,0.06,-0.82,16232.42,-50451.02,5654.98,0
1,1,1,1,0,1,0.97,-0.02,-0.05,-787.40,-22851.37,60828.03,5
1,1,1,0,0,1,0.95,0.72,-0.40,14571.72,6661.90,8332.15,4
1,1,1,0,0,1,0.58,0.71,0.08,15743.28,-14240.05,-38780.76,0
1,1,1,1,0,1,1.13,-0.05,-0.24,-8210.46,12350.29,1274.16,5
1,1,1,0,0,1,0.78,0.61,0.32,21686.97,-29370.11,-16074.94,4
1,1,1,0,0,1,1.04,0.09,-0.13,-6802.68,37940.87,-15719.42,4
1,1,1,1,0,1,0.98,-0.34,-0.18,-36308.80,47363.45,-23240.30,5
1,1,1,1,0,1,1.00,-0.11,-0.37,32889.56,-65900.81,22350.30,5
1,1,1,1,0,1,0.96,-0.20,0.21,-4051.54,-15771.91,76962.63,5
1,1,1,0,0,1,1.14,0.36,-0.02,-13836.81,10398.48,36850.43,4
1,1,1,0,0,1,0.61,0.87,-0.22,10899.56,6890.96,-41073.77,0
1,1,1,0,0,1,0.53,0.96,-0.04,-16063.01,4328.33,-13187.80,0
0,1,1,1,0,1,1.07,0.03,-0.68,-21267.02,31818.22,-37625.91,0
1,1,1,1,0,1,1.09,-0.03,-0.46,23173.49,-69883.16,-4025.30,5
1,1,1,1,0,0,0.82,-0.06,0.71,3407.31,13373.91,-1278.93,5
1,1,1,1,0,1,1.22,-0.12,-0.43,-3968.03,36308.80,-5719.40,5
1,1,1,1,0,1,1.04,-0.11,-0.84,-7220.24,44104.08,-2035.32,5
0,1,1,1,0,1,0.75,0.02,-0.48,6556.92,-48284.47,-2517.30,0
1,1,1,1,0,1,1.10,-0.08,-0.27,7272.74,-57356.30,4254.36,5
1,1,1,1,0,0,0.71,0.01,0.92,4593.18,11274.17,-5010.74,6
1,1,1,1,0,1,1.15,0.00,-0.13,-5466.48,42922.98,-1455.50,0
1,1,1,1,0,1,0.92,0.17,-0.66,-11658.33,22188.05,60384.22,0
0,1,1,0,0,1,0.74,0.36,-0.59,-15712.26,14640.91,-50136.06,4
0,1,1,1,0,1,0.90,-0.22,-0.70,1665.48,-10023.87,-12576.96,5
0,1,1,1,0,1,0.89,0.15,-0.47,11863.53,-15084.72,23588.67,0
1,1,1,0,0,1,1.01,0.23,-0.15,26869.51,-50758.82,-11386.32,4
1,1,1,0,0,1,0.99,0.34,-0.24,-4781.68,25838.73,-21641.64,4
1,0,1,1,0,1,1.01,-0.35,-0.33,4151.76,3445.48,-30563.14,5
1,1,1,1,0,1,0.93,0.20,-0.28,431.88,5530.91,44199.52,0
1,1,1,0,0,1,0.97,0.35,-0.29,-2879.98,1896.92,53393.04,4
0,1,1,0,0,1,0.65,0.96,-0.35,7542.36,-1880.22,-26363.67,0
1,1,1,0,0,1,1.00,0.33,-0.23,3913.15,-994.99,-42567.45,4
1,1,1,1,0,1,0.83,-0.05,0.00,-7692.68,19983.32,-36618.98,5
1,1,1,1,0,1,1.02,-0.33,-0.88,6072.54,23991.91,6764.50,5
1,1,1,1,0,1,0.81,0.05,-0.11,5268.44,-45015.56,2646.15,0
1,1,1,1,0,1,1.04,-0.02,-0.19,6986.41,-75678.92,16139.36,5
1,1,1,1,0,0,0.74,-0.06,0.49,-8959.69,59608.75,-453.35,5
1,1,1,1,0,1,1.03,-0.09,-0.12,1271.77,-7890.73,13020.77,5
1,1,1,0,0,1,0.71,0.94,-0.29,209.97,15776.68,13970.43,0
1,1,1,1,0,1,1.08,0.08,-0.31,1663.09,-658.55,-5048.92,0
1,1,1,1,0,1,0.94,-0.39,-0.19,-4414.23,8594.62,-77337.23,5
1,0,1,1,0,1,0.97,-0.47,-0.32,3068.48,2498.21,67062.83,5
1,1,1,1,0,1,1.10,-0.08,-0.12,6218.09,-5728.95,7117.64,5
1,1,1,1,0,1,0.93,-0.06,-0.74,-12290.64,54707.77,7179.68,5
0,1,1,1,0,1,0.91,0.07,-0.72,25122.91,-60696.80,2462.42,0
1,1,1,0,0,1,0.89,0.01,0.20,8985.93,-59487.06,2152.23,4
1,1,1,0,0,0,0.85,0.08,0.21,-9157.73,65793.44,-1598.67,4
1,1,1,1,0,1,1.26,-0.12,-0.45,-5557.15,16867.12,4595.57,5
1,1,1,1,0,1,0.83,0.24,-0.64,5087.10,24595.59,35721.82,0
0,1,1,0,0,1,0.67,0.41,-0.58,23001.70,-21794.35,15163.46,1
1,1,1,0,0,1,0.81,0.43,-0.24,26234.82,-35764.77,-43447.91,4
1,1,1,1,0,1,0.84,0.02,-0.01,-5984.26,44927.27,-29804.38,0
1,0,1,1,0,1,1.11,-0.34,-0.54,-7434.99,3378.67,-18651.89,5
1,0,1,1,0,1,0.89,-0.46,-0.08,18845.17,-40954.47,2908.62,5
1,1,1,1,0,1,0.93,0.12,0.09,-3805.78,-3254.60,30520.20,0
1,1,1,1,0,1,1.00,0.19,-0.32,-17876.42,26537.85,-5986.64,0
1,1,1,0,0,1,1.02,0.03,-0.10,18360.79,-32190.44,-3292.77,4
1,1,1,0,0,1,0.87,0.05,0.22,-7139.12,20069.22,-3688.86,4
1,1,1,1,0,1,1.15,0.14,-0.45,217.13,7766.65,-2486.28,0
1,1,1,1,0,1,0.84,0.21,-0.68,-15447.40,51018.91,-2214.27,0
0,1,1,1,0,1,0.85,0.07,-0.55,10935.35,-74910.60,1214.51,0
1,1,1,0,0,1,1.09,0.15,-0.14,2290.63,18043.45,2250.06,4
1,1,1,1,0,1,0.73,0.60,-0.50,10591.76,6210.94,62491.12,0
1,1,1,0,0,1,0.97,0.23,-0.30,9773.33,-16387.52,-60811.33,4
1,1,1,1,0,1,0.88,-0.16,-0.24,-30522.58,67036.58,-14569.33,5
0,1,1,1,0,1,0.91,-0.01,-1.12,11610.61,-13085.20,7010.27,1
1,1,1,1,0,1,0.92,-0.01,-0.11,2922.93,-39541.92,-6552.14,5
1,1,1,1,0,1,0.91,0.13,-0.06,19401.12,-76323.16,17306.15,0
1,1,1,1,0,0,0.74,-0.07,0.75,-1970.89,16406.60,-1679.79,6
1,1,1,0,0,1,1.20,0.06,-0.10,202.82,-6993.57,-2491.05,4
1,1,1,1,0,1,0.89,0.08,-0.05,-10768.33,32166.58,78186.68,0
1,1,1,0,0,1,0.75,0.45,-0.21,1393.46,1722.74,-74757.90,4
1,1,1,1,0,1,1.01,0.09,-0.09,952.04,5657.37,-26521.15,0
1,0,1,1,0,1,0.90,-0.69,-0.45,-2717.73,20813.67,-20331.69,5
1,0,1,1,0,1,0.90,-0.20,-0.26,5872.11,-16323.09,61357.74,5
1,1,1,1,0,1,1.05,-0.22,-0.83,-14490.59,53180.68,-22104.53,5
1,0,1,1,0,1,0.87,-0.46,-0.76,12956.35,-59076.66,-7666.44,0
1,0,1,1,0,1,0.99,-0.69,0.15,1617.75,-29933.22,35449.81,5
1,1,1,1,0,1,0.93,-0.09,0.10,-16549.77,19160.13,23982.37,5
1,1,1,0,0,1,0.99,0.27,0.02,26750.21,-58830.89,-6382.73,4
1,1,1,1,0,0,0.82,0.20,0.57,-7115.25,14552.63,7649.73,0
1,1,1,0,0,1,0.93,0.18,-0.15,-17236.96,48797.48,-22984.99,4
1,1,1,1,0,1,1.12,-0.02,-0.51,345.98,17530.44,835.12,5
1,1,1,1,0,1,1.04,0.04,-0.24,-7222.63,20064.45,6129.81,0
1,1,1,1,0,1,0.96,0.00,-0.57,13932.25,-7487.48,-8878.56,0
1,1,1,1,0,1,0.90,0.09,-0.51,4034.84,5881.66,1414.94,0
1,1,1,1,0,1,0.98,0.11,-0.51,1589.12,763.54,-69.20,0
1,1,1,1,0,1,0.96,0.08,-0.49,1558.10,-1018.85,-2942.02,0
1,1,1,1,0,1,0.99,0.08,-0.50,2748.75,-474.83,-119.30,0
1,1,1,1,0,1,0.94,0.06,-0.48,2073.49,1238.37,-100.21,0
1,1,1,1,0,1,0.97,0.05,-0.50,3650.68,-2214.27,-515.39,0
1,1,1,1,0,1,0.97,0.12,-0.52,-1021.24,-104.99,2763.07,0
1,1,1,1,0,1,1.03,0.05,-0.36,-1517.54,-27294.23,1059.41,0
1,1,1,1,0,1,0.83,0.15,-0.12,5526.13,6800.29,11059.42,0
1,1,1,1,0,1,1.08,0.08,-0.10,11882.62,-22295.42,25118.14,0
1,1,1,0,0,0,0.77,0.51,0.24,9985.69,7902.66,-3829.64,4

1,1,1,0,0,1,1.01,-0.08,0.06,-1026.01,24688.65,-45218.37,4
1,1,1,0,0,1,1.02,0.01,-0.34,-24132.69,22121.24,20329.30,4
1,1,1,0,0,1,0.80,0.32,-0.07,39639.75,-44917.73,26160.85,4
1,1,1,0,0,1,0.78,0.37,0.15,11500.85,6220.48,-40868.57,4
1,1,1,1,0,1,1.19,-0.26,0.08,-3545.70,20885.25,-4058.70,5
1,1,1,0,0,1,0.98,0.33,0.07,8136.49,-10257.71,32407.58,4
1,1,1,0,0,1,1.07,0.47,-0.13,-24108.83,17208.32,28344.10,4
1,1,1,0,0,1,0.95,0.26,-0.15,5590.56,-5958.01,-69100.53,4
1,1,1,1,0,1,0.88,-0.22,0.04,22185.66,-1519.93,-63424.07,5
1,0,1,1,0,1,0.93,-0.82,-0.37,-8795.05,29694.62,7800.06,5
1,1,1,1,0,1,0.96,0.38,-0.21,7093.78,-9112.39,25471.28,0
1,1,1,0,0,1,0.90,0.21,0.06,825.58,-486.76,-7699.84,4
1,1,1,1,0,1,1.05,-0.25,-0.69,-3848.73,26053.48,-47170.18,5
1,0,1,1,0,1,0.93,-0.85,-0.22,4676.69,-54380.87,1853.97,5
1,0,1,1,0,1,0.92,-0.28,0.32,8475.31,-25905.54,38050.62,5
1,1,1,1,0,1,1.04,0.17,0.34,-5583.40,3941.78,17341.94,0
1,1,1,1,0,1,1.13,-0.13,0.15,8177.06,2875.21,-22894.32,5
1,1,1,0,0,1,0.70,0.25,0.51,6251.50,-17893.12,17738.03,4
1,1,1,1,0,1,0.73,0.08,-0.02,-42932.52,65113.41,353.14,0
0,1,1,1,0,1,1.00,0.08,-0.69,-28363.19,22868.08,-31927.98,0
1,0,1,1,0,1,0.89,-0.23,-0.21,16423.31,-51049.93,699.12,5
1,1,1,1,0,1,0.87,0.02,0.04,-19809.14,39995.27,30133.65,0
0,1,1,1,0,1,1.11,-0.07,-0.86,-3827.25,18682.91,-7773.81,5
0,1,1,1,0,1,1.06,-0.20,-0.84,21355.31,-43249.87,20186.13,5
1,1,1,0,0,1,0.93,0.49,-0.27,10448.59,-20539.27,-21.47,4
1,1,1,1,0,1,0.92,-0.11,0.20,4423.77,-15289.92,-48367.98,5
1,0,1,1,0,1,1.02,-0.44,-0.09,-8107.86,44927.27,-17523.28,5
1,1,1,1,0,1,0.87,0.22,-0.35,19658.81,-7038.90,62698.71,0
1,1,1,0,0,1,0.99,0.37,-0.35,11973.29,-9744.70,1231.21,4
1,1,1,1,0,1,0.94,-0.15,0.12,-3521.84,-5576.24,-33209.29,5
1,0,1,1,0,1,1.03,-0.08,-0.35,-5717.02,35242.22,-12894.31,5
1,1,1,1,0,1,0.85,0.22,-0.26,11777.63,-16762.13,41608.25,0
1,1,1,0,0,1,1.04,0.30,-0.05,999.76,-1431.64,25686.02,4
1,1,1,0,0,1,0.69,0.62,-0.16,-1763.30,-4120.74,-57900.32,4
1,1,1,1,1,1,1.11,0.00,-0.09,866.14,1737.06,-4020.52,0
1,1,1,1,0,1,1.07,-0.77,-0.17,6411.36,1009.31,-52235.80,5
1,1,1,1,0,1,0.90,0.16,-0.26,-1467.43,5609.65,23211.67,0
1,1,1,1,0,1,1.01,0.16,-0.15,3035.08,-1806.25,45857.84,0
1,1,1,1,0,1,0.95,0.11,-0.78,-22586.52,46089.29,-41675.06,0
0,1,1,1,0,1,0.90,-0.27,-0.67,18208.08,-63538.61,-15325.71,5
1,0,1,1,0,1,0.96,-0.26,0.00,9501.32,-33364.39,27778.60,5
1,0,1,1,0,1,1.13,-0.08,-0.22,-1550.94,12011.47,-112.15,5
1,1,1,1,0,1,0.88,0.09,0.37,9847.30,-25640.69,6399.43,0
1,1,1,1,0,1,0.88,-0.57,0.15,11481.76,36786.01,-41610.64,5
1,0,1,1,0,1,1.11,-0.23,-0.40,-19892.65,47341.98,39759.05,5
1,1,1,1,0,1,0.95,0.09,-0.24,28067.32,-36576.04,16840.87,0
1,1,1,0,0,1,0.91,0.09,0.22,22958.75,-26781.23,-18687.69,4
1,1,1,0,0,1,1.01,0.49,0.10,-8193.76,9849.69,44285.42,4
1,1,1,0,0,1,0.85,0.42,-0.06,-31016.50,23509.93,-29864.03,4
1,1,1,0,0,1,1.12,0.04,-0.15,39429.77,-30995.02,-5872.11,4
1,1,1,1,0,1,0.94,0.03,0.26,-5079.94,15366.28,-36447.19,0
1,0,1,1,0,1,0.98,-0.22,0.01,-13502.76,38539.77,-1689.34,5
1,1,1,1,0,1,1.02,0.15,-0.42,9630.17,-11340.98,36957.81,0
1,1,1,0,0,1,1.08,0.27,-0.08,23662.64,-23304.73,-3607.73,4
1,1,1,0,0,1,1.01,0.19,0.07,-8324.99,6167.99,-28902.44,4
1,1,1,1,0,1,1.07,-0.34,-0.09,15168.23,-11183.50,-36022.47,5
1,0,1,1,0,1,0.92,-0.50,0.06,-3027.92,20866.16,-214.75,5
1,1,1,1,0,1,1.05,0.18,-0.21,226.68,-1398.24,21565.28,0
1,1,1,1,0,1,0.89,0.25,-0.15,-3927.47,4963.02,62498.28,0
1,1,1,0,0,1,1.09,0.15,-0.18,6428.07,-5867.34,-47950.42,4
1,1,1,1,0,1,0.83,-0.12,-0.14,-18191.38,49036.08,-28914.37,5
0,1,1,1,0,1,1.05,-0.20,-0.66,33593.45,-46091.68,47509.00,5
1,1,1,0,0,1,1.00,0.10,-0.15,19405.89,-35464.13,18766.43,4
1,1,1,0,0,0,0.80,0.41,0.29,1412.55,2548.32,1231.21,4
1,1,1,0,0,1,0.90,0.69,-0.08,8332.15,-14948.72,25762.38,4
1,1,1,0,0,0,0.93,0.31,0.29,-15385.37,22421.88,-34261.55,4
1,1,1,0,0,1,0.98,0.37,-0.30,-6953.00,207.59,37081.88,4
1,1,1,0,0,1,0.77,0.63,0.14,31892.19,-24173.26,-9529.96,4
1,1,1,0,0,0,0.95,0.02,0.32,4891.44,20472.46,-44667.19,4
1,1,1,1,0,1,0.95,-0.03,-0.18,-13421.63,34760.24,-13643.54,5
1,1,1,1,0,1,1.01,-0.26,-0.14,18900.04,-45535.72,-7382.49,5
1,1,1,1,0,1,0.94,0.04,0.31,-6972.09,-22619.92,43407.35,0
1,1,1,0,0,1,0.86,0.37,-0.02,-15829.17,55709.91,-12273.93,4
1,1,1,0,0,1,0.95,0.11,0.09,15077.56,-68795.11,-12639.00,4
1,1,1,1,0,0,0.76,0.15,0.47,-2775.00,54755.49,5306.62,0
1,1,1,1,0,1,1.04,0.05,-0.03,-9821.06,13297.56,3290.39,0
1,1,1,1,0,1,1.01,0.13,-0.71,-5115.73,17146.29,-16731.11,0
1,1,1,1,0,1,0.95,0.09,-0.04,14022.92,-56203.83,19119.56,0
1,1,1,0,0,1,0.79,0.20,-0.10,-21596.30,57781.02,-29868.80,4
1,1,1,1,0,1,0.84,0.02,-0.63,-5263.67,35022.71,-8699.60,0
1,1,1,1,0,1,0.88,-0.29,-0.97,6263.43,-14399.92,13641.15,0
1,1,1,1,0,1,1.05,0.02,-0.47,3097.12,-39014.60,9331.91,0
1,1,1,1,0,1,1.01,0.01,-0.03,17578.16,-11066.58,-13889.30,0
1,1,1,1,0,1,0.93,-0.04,0.22,-300.64,-39768.59,17103.34,5
1,1,1,0,0,1,0.92,0.16,-0.00,408.02,58451.51,4194.71,4
1,1,1,1,0,1,1.06,0.05,-0.30,-188.50,1111.91,31708.46,0
1,1,1,0,0,1,0.75,0.69,-0.21,887.62,-3001.67,-45008.40,4
1,1,1,1,0,1,1.04,0.06,-0.08,-262.47,-1226.44,-44473.92,0
1,0,1,1,0,1,1.20,-0.82,-0.35,7162.98,336.44,-2641.38,5
1,1,1,1,0,1,0.81,0.12,-0.19,-9448.83,18685.30,37060.41,0
1,1,1,1,0,1,1.01,-0.18,-0.91,-2440.95,10930.58,-14893.84,5
1,1,1,1,0,1,0.88,0.10,-0.19,25700.34,-61825.41,22109.31,0
1,1,1,0,0,1,0.90,0.06,0.26,26005.76,-27225.04,-12686.72,4
1,0,1,1,0,1,0.95,-0.38,0.25,-1102.36,50770.75,-31400.65,5
1,0,1,1,0,1,0.99,-0.38,-0.46,-5526.13,40718.25,5361.49,5
1,0,1,1,0,1,0.78,-0.06,-0.14,19308.06,-57571.05,29367.72,5
1,0,1,1,0,1,1.19,-0.33,0.25,9439.29,4528.76,22686.73,5
1,1,1,0,0,1,0.99,0.26,0.24,3015.99,-17081.86,29644.51,4
1,1,1,0,0,1,0.84,0.69,0.02,-23051.80,23001.70,8933.44,4
1,1,1,1,0,1,1.06,0.39,-0.57,-11510.39,-429.49,-50782.68,0
1,1,1,1,0,1,1.04,-0.19,-0.10,21548.58,-23509.93,-21579.60,5
1,0,1,1,0,1,0.99,-0.17,0.08,-1009.31,9992.85,-30765.96,5
1,0,1,1,0,1,1.05,-0.43,-0.24,-11555.73,15927.00,16213.33,5
0,0,1,1,0,1,1.04,-0.32,-0.84,12378.92,2464.81,32412.35,5
1,1,1,1,0,1,0.90,0.02,-0.19,37332.42,-39475.11,32092.62,0
1,1,1,0,0,1,0.80,0.43,0.12,10195.67,-6723.94,-25616.83,4
1,1,1,0,0,1,1.12,0.40,0.19,-3865.43,-22641.40,57196.44,4
1,1,1,0,0,0,0.69,0.55,0.29,9195.91,12409.94,-5184.93,4
1,1,1,0,0,0,0.78,0.39,0.58,19162.51,-6370.80,937.72,4
1,1,1,0,0,1,0.84,0.26,0.11,-27148.68,46096.45,-32383.71,4
1,1,1,1,0,1,1.31,0.29,-0.48,1603.44,3741.35,-26666.70,0
1,1,1,1,0,1,0.87,-0.11,0.31,17828.70,-20424.74,-8511.10,5
1,0,1,1,0,1,1.07,-0.28,-0.10,-11989.99,49296.16,-14607.51,5
1,0,1,1,0,1,1.07,-0.34,-0.43,-6368.42,29728.02,25807.71,5
1,1,1,1,0,1,0.78,0.40,-0.15,18482.48,-22307.35,17606.79,0
1,1,1,1,0,1,1.18,0.17,-0.29,5118.12,3784.30,2550.71,0
1,1,1,0,0,1,0.98,0.23,-0.19,830.35,2500.60,-3999.05,4
1,1,1,1,0,1,1.05,0.06,-0.24,5571.47,-2047.25,-9429.74,0
1,1,1,1,0,1,1.03,0.10,-0.23,5099.03,701.50,-40.56,0
1,1,1,1,0,1,1.02,0.04,-0.26,3326.18,-188.50,-734.91,0

1,1,1,1,0,1,1.03,0.06,-0.25,2612.74,477.21,560.73,0
1,1,1,1,0,1,1.05,0.05,-0.22,2772.61,940.11,-1686.95,0
1,1,1,1,0,1,1.03,0.03,-0.22,4228.11,-718.21,-928.18,0
1,1,1,1,0,1,1.03,0.05,-0.28,1436.41,-1080.89,214.75,0
1,1,1,1,0,1,1.04,0.05,-0.23,-479.60,-2288.24,3008.83,0
1,1,1,1,0,1,1.10,0.13,-0.15,-8134.11,-12235.76,3571.94,0
1,1,1,1,0,1,0.89,0.22,-0.21,18797.44,-11951.81,2911.00,0
1,1,1,0,0,1,1.02,0.43,0.04,19300.90,-6471.02,10975.91,4
1,1,1,0,0,1,0.83,0.29,0.13,1980.44,27530.45,-15609.66,4
1,1,1,1,0,1,1.13,0.01,-0.31,-11274.17,5891.20,-10598.91,0
1,1,1,0,0,1,0.88,0.24,0.15,22157.03,-25499.91,18348.86,4
1,1,1,0,0,1,0.95,0.04,0.13,8406.12,19160.13,-32891.95,4
1,0,1,1,0,1,1.09,-0.25,-0.07,-5967.56,23104.30,-269.63,5
1,1,1,1,0,1,1.09,0.03,-0.45,-19747.10,20374.63,26072.56,0
1,1,1,1,0,1,1.01,0.26,-0.45,14481.05,-24550.25,15309.01,0
1,1,1,0,0,1,0.77,0.37,0.11,34340.29,-28112.65,608.45,4
1,1,1,0,0,0,0.95,0.07,0.28,10923.42,8403.73,-24733.98,4
1,0,1,1,0,1,0.97,-0.20,-0.04,-13738.98,25158.70,-15681.24,5
1,1,1,1,0,1,0.99,-0.02,-0.47,-15857.81,29568.15,15638.29,5
1,1,1,1,0,1,1.09,-0.02,-0.64,8406.12,-14144.61,5893.59,5
1,1,1,0,0,1,0.79,0.32,-0.17,16323.09,-5289.91,-10467.68,4
1,1,1,1,0,1,1.06,-0.24,-0.38,-11596.29,27000.75,-18611.33,5
0,0,1,1,0,1,1.03,-0.34,-0.52,24139.85,-52722.56,-27069.94,5
1,0,1,1,0,1,0.82,-0.37,0.09,858.98,-30033.44,39751.89,5
1,1,1,1,0,1,0.94,0.10,0.21,-13710.35,-1605.82,23958.51,0
1,1,1,0,0,1,1.01,0.34,-0.23,-34905.79,32278.73,-8112.63,4
1,1,1,0,0,1,0.76,0.15,-0.10,6728.71,-26750.21,7625.87,4
1,1,1,0,0,1,1.14,0.21,-0.28,913.86,15423.54,-5609.65,4
1,1,1,1,0,1,1.09,0.18,-0.22,7349.09,-11412.56,-11064.20,0
1,1,1,1,0,1,0.92,-0.08,-0.05,-314.96,9742.32,-11090.44,5
1,0,1,1,0,1,1.07,-0.08,-0.11,4013.37,19.09,3839.18,5
1,1,1,1,0,1,1.03,-0.01,-0.18,7117.64,429.49,-1515.15,5
1,1,1,1,0,1,1.04,-0.02,-0.14,2839.42,-1555.72,930.57,5
1,1,1,1,0,1,1.05,-0.02,-0.14,-183.73,1620.14,-1634.46,5
1,1,1,1,0,1,1.01,-0.05,-0.22,-1040.33,2021.00,-1748.99,5
1,1,1,1,0,1,1.13,-0.10,-0.06,904.32,-3447.87,-124.08,5
1,1,1,1,0,1,1.06,0.01,-0.14,3851.11,276.78,345.98,0
1,1,1,1,0,1,1.07,-0.13,-0.26,4786.45,-8795.05,4593.18,5
1,1,1,0,0,1,0.95,0.26,0.39,-8962.07,-10906.72,-732.52,4
1,1,1,1,0,1,1.11,-0.12,-0.01,4659.99,23013.63,9231.70,5
1,1,1,0,0,1,1.08,0.43,0.09,-19816.29,-17933.69,22395.63,4
1,1,1,0,0,1,0.80,0.32,0.38,27790.53,-9654.03,-13703.19,4
1,1,1,1,0,1,0.97,0.13,-0.14,-9835.37,49933.25,-5898.36,0
1,1,1,1,0,1,1.06,0.08,-0.50,-12806.03,-4225.73,-6628.50,0
1,0,1,1,0,1,1.07,-0.31,-0.25,1212.12,-22266.79,-14414.24,5
1,0,1,1,0,1,1.16,-0.57,-0.10,2729.66,-15015.53,7864.48,5
1,1,1,1,0,1,1.17,-0.32,0.47,16428.08,-10453.36,231.45,5
1,0,1,1,0,1,1.05,-0.22,-0.09,-548.80,30522.58,-17318.08,5
1,0,1,1,0,1,1.01,-0.40,-0.69,-14593.19,21861.15,28060.16,5
1,1,1,1,0,1,1.02,0.31,-0.11,12808.41,-32724.92,15736.12,0
1,1,1,1,0,1,0.96,0.36,-0.36,23342.90,-22973.06,18990.71,0
1,1,1,0,0,1,0.77,0.40,0.28,49434.56,-26497.29,-9914.11,4
1,1,1,1,0,0,0.74,-0.30,0.43,19563.37,39811.54,-34290.18,5
1,1,1,1,0,1,1.32,0.21,-0.39,-21023.64,7678.37,62326.48,0
1,1,1,0,0,1,1.01,0.28,0.15,6840.86,-34788.87,12288.25,4
1,1,1,0,0,1,0.89,0.09,0.10,-14526.38,53657.90,-37613.98,4
1,1,1,1,0,1,1.08,-0.05,-0.18,-4189.94,20780.27,-22405.18,5
0,0,1,1,0,1,1.03,-0.64,-0.74,7590.08,-28761.66,-22326.44,5
1,0,1,1,0,1,0.87,-0.63,0.16,-2123.60,-23101.91,36258.69,5
1,0,1,1,0,1,1.08,-0.18,-0.22,-14612.28,27852.57,260.08,5
1,1,1,1,0,1,1.13,-0.22,-0.68,-7604.40,26125.06,37976.66,5
1,1,1,0,0,1,1.09,0.25,-0.27,16649.98,-29706.55,2889.53,4
1,1,1,0,0,1,0.75,0.12,0.20,38530.23,-40241.04,-25037.01,4
1,0,1,1,0,1,0.91,-0.22,0.21,-470.06,30298.29,-18389.43,5
1,0,1,1,0,1,1.02,-0.38,-0.28,-4631.36,47754.77,-19057.53,5
0,0,1,1,0,1,0.86,-0.58,-0.81,4287.76,-30823.23,-1899.31,1
1,0,1,1,0,1,0.93,-0.50,-0.22,15719.42,-36848.05,12710.58,5
1,0,1,1,0,1,0.93,-0.32,0.04,-2884.76,-20589.38,32350.31,5
1,1,1,1,0,1,1.01,0.13,-0.01,-24989.29,39847.34,10314.97,0
1,1,1,1,0,1,1.00,0.04,-0.39,-6184.69,-6895.74,-3712.72,0
1,1,1,0,0,1,0.96,0.67,-0.44,38508.75,-28415.68,13839.19,4
1,1,1,1,0,1,0.86,-0.09,0.22,18997.87,13455.04,-32880.02,5
1,0,1,1,0,1,0.95,-0.43,-0.22,-1770.46,54094.55,-22307.35,5
0,0,1,1,0,1,0.90,-0.40,-0.51,4366.50,-59651.70,26105.97,5
1,1,1,1,0,1,1.03,-0.05,-0.03,1455.50,-7974.24,24077.81,5
1,1,1,0,0,0,0.57,0.35,0.65,13020.77,-25275.62,9088.53,6
1,1,1,0,0,1,0.94,0.11,-0.08,-10436.66,47609.21,-28589.87,4
1,1,1,1,0,1,0.91,-0.03,-0.06,-22572.20,44061.13,-33051.81,5
0,0,1,1,0,1,1.03,-0.21,-0.66,1517.54,-19069.46,-6325.47,5
1,0,1,1,0,1,0.85,-0.34,0.01,21601.07,-32414.73,-5471.25,5
1,1,1,1,0,1,0.74,0.15,0.10,-13395.39,2786.93,33190.21,0
1,1,1,0,0,1,1.20,0.16,-0.10,28487.27,5476.03,-4621.81,4
1,1,1,0,0,1,0.69,0.16,0.48,11531.87,-23741.38,6256.27,4
1,1,1,1,0,1,1.10,-0.02,-0.13,-6005.73,38413.31,-18043.45,5
1,1,1,1,0,1,1.18,-0.18,-0.16,-14764.99,25652.62,-7461.23,5
1,1,1,1,0,1,1.04,-0.14,-0.55,-1966.12,-272.01,-5726.56,5
1,0,1,1,0,1,1.01,-0.14,-0.05,18413.29,-17287.06,-13254.61,5
1,0,1,1,0,1,0.88,-0.47,-0.04,-8716.31,32987.39,-20188.52,5
1,0,1,1,0,1,0.92,-0.46,-0.32,-11283.72,39864.04,4442.86,5
0,1,1,1,0,1,0.78,0.01,-0.77,4869.96,-18845.17,50887.67,0
1,1,1,1,0,1,1.07,-0.02,-0.27,8313.06,-22126.01,-3061.33,5
1,1,1,0,0,1,0.98,0.07,0.05,12223.83,-3951.33,-209.97,4
1,1,1,0,0,1,0.86,0.35,0.09,25619.21,-15738.50,-9887.87,4
1,1,1,1,0,1,1.07,-0.31,-0.03,9451.22,8103.09,-25557.17,5
1,0,1,1,0,1,0.96,-0.47,-0.22,-5182.54,58995.53,-9501.32,5
0,0,1,1,0,1,0.93,-0.30,-0.42,12837.05,-50610.89,34364.15,5
1,0,1,1,0,1,0.98,-0.11,0.01,26482.97,-15430.70,14032.47,5
1,1,1,1,0,1,0.97,0.03,0.30,1966.12,-30792.21,21162.04,0
1,1,1,0,0,0,0.74,0.13,0.40,-9444.06,37749.98,-13517.08,4
1,1,1,1,0,1,1.05,0.11,-0.07,-7041.29,-1243.14,-3261.75,0
1,1,1,1,0,1,0.82,0.25,-0.20,-38439.55,25187.33,52930.14,0
1,1,1,0,0,1,0.82,0.60,-0.31,36177.56,-22789.34,16518.75,4
1,1,1,0,0,0,0.78,0.63,0.15,24655.24,-374.61,-25917.47,4
1,1,1,1,0,1,1.09,-0.17,0.11,28375.12,14144.61,-50281.61,5
1,0,1,1,0,1,0.94,-0.40,-0.05,7306.14,8723.46,-16554.54,5
1,0,1,1,0,1,0.82,-0.37,0.11,-5683.61,-18768.81,22395.63,5
1,0,1,1,0,1,0.87,-0.43,0.35,10114.54,-4722.03,-8995.48,5
1,0,1,1,0,1,0.83,-0.72,0.00,18527.82,35693.19,-15688.40,5
1,0,1,1,0,1,0.87,-0.71,-0.26,-13805.79,16709.63,24144.62,5
1,0,1,1,0,1,0.93,-0.32,-0.51,-14361.74,13817.72,21083.30,5
1,0,1,1,0,1,0.95,0.00,-0.14,1138.15,-51419.77,21472.23,0
1,0,1,1,0,1,0.88,-0.27,0.33,-2918.16,55373.48,-2481.51,5
1,0,1,1,0,1,1.13,-0.36,-0.21,-25800.55,13497.99,3929.85,5
1,0,1,1,0,1,0.93,-0.04,-0.27,-18270.12,20116.94,-16413.76,5
1,0,1,1,0,1,1.00,-0.50,-0.33,23676.95,-54168.52,-1140.54,5
1,0,1,1,0,1,0.81,-0.46,0.27,5380.58,-37866.90,17029.37,5
1,1,1,1,0,1,0.98,-0.01,-0.00,-24452.43,35829.20,30598.94,5
1,1,1,0,0,1,1.10,0.16,-0.13,-3841.57,-20682.44,-4345.03,4
1,1,1,1,0,1,1.09,-0.02,-0.26,-22674.80,48220.05,-19308.06,5
1,1,1,1,0,1,0.97,0.15,-0.35,-2982.58,-606.06,47897.93,0

